resp_Welcome.keys,resp_Welcome.rt,resp_Instr_Intro.keys,resp_Instr_Intro.rt,resp_Instr_Prac1.keys,resp_Instr_Prac1.rt,resp_trial_Prac1.keys,resp_trial_Prac1.corr,prac_trials.thisRepN,prac_trials.thisTrialN,prac_trials.thisN,prac_trials.thisIndex,prac_trials.ran,stimulus_prac1,corrAns_prac1,participant,session,indywidualny kod,date,expName,psychopyVersion,OS,frameRate,resp_trial_Prac1.rt,resp_Instr_Test1.keys,resp_Instr_Test1.rt,resp_trial_Test1.keys,resp_trial_Test1.corr,resp_trial_Test1.rt,test1trial.thisRepN,test1trial.thisTrialN,test1trial.thisN,test1trial.thisIndex,test1trial.ran,stimulus_test1,corrAns_test1,resp_Instr_Test2.keys,resp_Instr_Test2.rt,key_resp_Test2.keys,key_resp_Test2.corr,key_resp_Test2.rt,test2trial.thisRepN,test2trial.thisTrialN,test2trial.thisN,test2trial.thisIndex,test2trial.ran,stimulus_test2,corrAns_test2,resp_theEnd.keys,resp_theEnd.rt
space,6.0729,space,17.9026,space,8.8168,,0,0,0,0,11,1,X,space,hania,001,111,2023-07-13_10h35.56.829,Trial go no go,2020.2.10,MacIntel,60,,,,,,,,,,,,,,,,,,,,,,,,,,,
,,,,,,space,1,0,1,1,0,1,X,space,hania,001,111,2023-07-13_10h35.56.829,Trial go no go,2020.2.10,MacIntel,60,0.5671,,,,,,,,,,,,,,,,,,,,,,,,,,
,,,,,,space,1,0,2,2,6,1,X,space,hania,001,111,2023-07-13_10h35.56.829,Trial go no go,2020.2.10,MacIntel,60,0.3674,,,,,,,,,,,,,,,,,,,,,,,,,,
,,,,,,space,1,0,3,3,7,1,X,space,hania,001,111,2023-07-13_10h35.56.829,Trial go no go,2020.2.10,MacIntel,60,0.3923,,,,,,,,,,,,,,,,,,,,,,,,,,
,,,,,,space,1,0,4,4,12,1,X,space,hania,001,111,2023-07-13_10h35.56.829,Trial go no go,2020.2.10,MacIntel,60,0.3678,,,,,,,,,,,,,,,,,,,,,,,,,,
,,,,,,,1,0,5,5,14,1,K,none,hania,001,111,2023-07-13_10h35.56.829,Trial go no go,2020.2.10,MacIntel,60,,,,,,,,,,,,,,,,,,,,,,,,,,,
,,,,,,space,1,0,6,6,1,1,X,space,hania,001,111,2023-07-13_10h35.56.829,Trial go no go,2020.2.10,MacIntel,60,0.3813,,,,,,,,,,,,,,,,,,,,,,,,,,
,,,,,,space,1,0,7,7,3,1,X,space,hania,001,111,2023-07-13_10h35.56.829,Trial go no go,2020.2.10,MacIntel,60,0.3271,,,,,,,,,,,,,,,,,,,,,,,,,,
,,,,,,space,1,0,8,8,8,1,X,space,hania,001,111,2023-07-13_10h35.56.829,Trial go no go,2020.2.10,MacIntel,60,0.3685,,,,,,,,,,,,,,,,,,,,,,,,,,
,,,,,,space,0,0,9,9,9,1,V,none,hania,001,111,2023-07-13_10h35.56.829,Trial go no go,2020.2.10,MacIntel,60,0.321,,,,,,,,,,,,,,,,,,,,,,,,,,
,,,,,,,1,0,10,10,4,1,W,none,hania,001,111,2023-07-13_10h35.56.829,Trial go no go,2020.2.10,MacIntel,60,,,,,,,,,,,,,,,,,,,,,,,,,,,
,,,,,,space,1,0,11,11,10,1,X,space,hania,001,111,2023-07-13_10h35.56.829,Trial go no go,2020.2.10,MacIntel,60,0.4152,,,,,,,,,,,,,,,,,,,,,,,,,,
,,,,,,space,1,0,12,12,5,1,X,space,hania,001,111,2023-07-13_10h35.56.829,Trial go no go,2020.2.10,MacIntel,60,0.4438,,,,,,,,,,,,,,,,,,,,,,,,,,
,,,,,,space,1,0,13,13,13,1,X,space,hania,001,111,2023-07-13_10h35.56.829,Trial go no go,2020.2.10,MacIntel,60,0.3607,,,,,,,,,,,,,,,,,,,,,,,,,,
,,,,,,space,1,0,14,14,2,1,X,space,hania,001,111,2023-07-13_10h35.56.829,Trial go no go,2020.2.10,MacIntel,60,0.337,,,,,,,,,,,,,,,,,,,,,,,,,,
,,,,,,,,,,,,,,,hania,001,111,2023-07-13_10h35.56.829,Trial go no go,2020.2.10,MacIntel,60,,space,7.1702,space,1,0.7096,0,0,0,6,1,X,space,,,,,,,,,,,,,,
,,,,,,,,,,,,,,,hania,001,111,2023-07-13_10h35.56.829,Trial go no go,2020.2.10,MacIntel,60,,,,space,1,0.6573,0,1,1,32,1,X,space,,,,,,,,,,,,,,
,,,,,,,,,,,,,,,hania,001,111,2023-07-13_10h35.56.829,Trial go no go,2020.2.10,MacIntel,60,,,,space,1,0.4007,0,2,2,22,1,X,space,,,,,,,,,,,,,,
,,,,,,,,,,,,,,,hania,001,111,2023-07-13_10h35.56.829,Trial go no go,2020.2.10,MacIntel,60,,,,,1,,0,3,3,24,1,H,none,,,,,,,,,,,,,,
,,,,,,,,,,,,,,,hania,001,111,2023-07-13_10h35.56.829,Trial go no go,2020.2.10,MacIntel,60,,,,space,1,0.3521,0,4,4,26,1,X,space,,,,,,,,,,,,,,
,,,,,,,,,,,,,,,hania,001,111,2023-07-13_10h35.56.829,Trial go no go,2020.2.10,MacIntel,60,,,,,1,,0,5,5,9,1,W,none,,,,,,,,,,,,,,
,,,,,,,,,,,,,,,hania,001,111,2023-07-13_10h35.56.829,Trial go no go,2020.2.10,MacIntel,60,,,,space,1,0.2398,0,6,6,0,1,X,space,,,,,,,,,,,,,,
,,,,,,,,,,,,,,,hania,001,111,2023-07-13_10h35.56.829,Trial go no go,2020.2.10,MacIntel,60,,,,space,1,0.4863,0,7,7,38,1,X,space,,,,,,,,,,,,,,
,,,,,,,,,,,,,,,hania,001,111,2023-07-13_10h35.56.829,Trial go no go,2020.2.10,MacIntel,60,,,,space,1,0.3332,0,8,8,5,1,X,space,,,,,,,,,,,,,,
,,,,,,,,,,,,,,,hania,001,111,2023-07-13_10h35.56.829,Trial go no go,2020.2.10,MacIntel,60,,,,space,1,0.268,0,9,9,30,1,X,space,,,,,,,,,,,,,,
,,,,,,,,,,,,,,,hania,001,111,2023-07-13_10h35.56.829,Trial go no go,2020.2.10,MacIntel,60,,,,space,1,0.2947,0,10,10,1,1,X,space,,,,,,,,,,,,,,
,,,,,,,,,,,,,,,hania,001,111,2023-07-13_10h35.56.829,Trial go no go,2020.2.10,MacIntel,60,,,,space,1,0.2681,0,11,11,45,1,X,space,,,,,,,,,,,,,,
,,,,,,,,,,,,,,,hania,001,111,2023-07-13_10h35.56.829,Trial go no go,2020.2.10,MacIntel,60,,,,space,0,0.2522,0,12,12,19,1,K,none,,,,,,,,,,,,,,
,,,,,,,,,,,,,,,hania,001,111,2023-07-13_10h35.56.829,Trial go no go,2020.2.10,MacIntel,60,,,,space,1,0.32,0,13,13,15,1,X,space,,,,,,,,,,,,,,
,,,,,,,,,,,,,,,hania,001,111,2023-07-13_10h35.56.829,Trial go no go,2020.2.10,MacIntel,60,,,,,1,,0,14,14,39,1,M,none,,,,,,,,,,,,,,
,,,,,,,,,,,,,,,hania,001,111,2023-07-13_10h35.56.829,Trial go no go,2020.2.10,MacIntel,60,,,,space,1,0.3079,0,15,15,11,1,X,space,,,,,,,,,,,,,,
,,,,,,,,,,,,,,,hania,001,111,2023-07-13_10h35.56.829,Trial go no go,2020.2.10,MacIntel,60,,,,space,1,0.3208,0,16,16,17,1,X,space,,,,,,,,,,,,,,
,,,,,,,,,,,,,,,hania,001,111,2023-07-13_10h35.56.829,Trial go no go,2020.2.10,MacIntel,60,,,,,1,,0,17,17,44,1,F,none,,,,,,,,,,,,,,
,,,,,,,,,,,,,,,hania,001,111,2023-07-13_10h35.56.829,Trial go no go,2020.2.10,MacIntel,60,,,,space,1,0.2836,0,18,18,12,1,X,space,,,,,,,,,,,,,,
,,,,,,,,,,,,,,,hania,001,111,2023-07-13_10h35.56.829,Trial go no go,2020.2.10,MacIntel,60,,,,space,1,0.3202,0,19,19,37,1,X,space,,,,,,,,,,,,,,
,,,,,,,,,,,,,,,hania,001,111,2023-07-13_10h35.56.829,Trial go no go,2020.2.10,MacIntel,60,,,,,1,,0,20,20,49,1,E,none,,,,,,,,,,,,,,
,,,,,,,,,,,,,,,hania,001,111,2023-07-13_10h35.56.829,Trial go no go,2020.2.10,MacIntel,60,,,,space,1,0.2565,0,21,21,23,1,X,space,,,,,,,,,,,,,,
,,,,,,,,,,,,,,,hania,001,111,2023-07-13_10h35.56.829,Trial go no go,2020.2.10,MacIntel,60,,,,space,1,0.4492,0,22,22,20,1,X,space,,,,,,,,,,,,,,
,,,,,,,,,,,,,,,hania,001,111,2023-07-13_10h35.56.829,Trial go no go,2020.2.10,MacIntel,60,,,,space,1,0.2862,0,23,23,28,1,X,space,,,,,,,,,,,,,,
,,,,,,,,,,,,,,,hania,001,111,2023-07-13_10h35.56.829,Trial go no go,2020.2.10,MacIntel,60,,,,space,1,0.3015,0,24,24,36,1,X,space,,,,,,,,,,,,,,
,,,,,,,,,,,,,,,hania,001,111,2023-07-13_10h35.56.829,Trial go no go,2020.2.10,MacIntel,60,,,,space,1,0.2838,0,25,25,31,1,X,space,,,,,,,,,,,,,,
,,,,,,,,,,,,,,,hania,001,111,2023-07-13_10h35.56.829,Trial go no go,2020.2.10,MacIntel,60,,,,,1,,0,26,26,34,1,N,none,,,,,,,,,,,,,,
,,,,,,,,,,,,,,,hania,001,111,2023-07-13_10h35.56.829,Trial go no go,2020.2.10,MacIntel,60,,,,space,1,0.2994,0,27,27,8,1,X,space,,,,,,,,,,,,,,
,,,,,,,,,,,,,,,hania,001,111,2023-07-13_10h35.56.829,Trial go no go,2020.2.10,MacIntel,60,,,,space,1,0.3397,0,28,28,40,1,X,space,,,,,,,,,,,,,,
,,,,,,,,,,,,,,,hania,001,111,2023-07-13_10h35.56.829,Trial go no go,2020.2.10,MacIntel,60,,,,space,1,0.3168,0,29,29,35,1,X,space,,,,,,,,,,,,,,
,,,,,,,,,,,,,,,hania,001,111,2023-07-13_10h35.56.829,Trial go no go,2020.2.10,MacIntel,60,,,,space,1,0.3199,0,30,30,3,1,X,space,,,,,,,,,,,,,,
,,,,,,,,,,,,,,,hania,001,111,2023-07-13_10h35.56.829,Trial go no go,2020.2.10,MacIntel,60,,,,,1,,0,31,31,4,1,V,none,,,,,,,,,,,,,,
,,,,,,,,,,,,,,,hania,001,111,2023-07-13_10h35.56.829,Trial go no go,2020.2.10,MacIntel,60,,,,space,1,0.2846,0,32,32,2,1,X,space,,,,,,,,,,,,,,
,,,,,,,,,,,,,,,hania,001,111,2023-07-13_10h35.56.829,Trial go no go,2020.2.10,MacIntel,60,,,,space,1,0.3105,0,33,33,41,1,X,space,,,,,,,,,,,,,,
,,,,,,,,,,,,,,,hania,001,111,2023-07-13_10h35.56.829,Trial go no go,2020.2.10,MacIntel,60,,,,space,1,0.3225,0,34,34,21,1,X,space,,,,,,,,,,,,,,
,,,,,,,,,,,,,,,hania,001,111,2023-07-13_10h35.56.829,Trial go no go,2020.2.10,MacIntel,60,,,,space,1,0.3043,0,35,35,27,1,X,space,,,,,,,,,,,,,,
,,,,,,,,,,,,,,,hania,001,111,2023-07-13_10h35.56.829,Trial go no go,2020.2.10,MacIntel,60,,,,space,1,0.421,0,36,36,46,1,X,space,,,,,,,,,,,,,,
,,,,,,,,,,,,,,,hania,001,111,2023-07-13_10h35.56.829,Trial go no go,2020.2.10,MacIntel,60,,,,space,1,0.3866,0,37,37,10,1,X,space,,,,,,,,,,,,,,
,,,,,,,,,,,,,,,hania,001,111,2023-07-13_10h35.56.829,Trial go no go,2020.2.10,MacIntel,60,,,,space,1,0.4359,0,38,38,48,1,X,space,,,,,,,,,,,,,,
,,,,,,,,,,,,,,,hania,001,111,2023-07-13_10h35.56.829,Trial go no go,2020.2.10,MacIntel,60,,,,space,1,0.3583,0,39,39,25,1,X,space,,,,,,,,,,,,,,
,,,,,,,,,,,,,,,hania,001,111,2023-07-13_10h35.56.829,Trial go no go,2020.2.10,MacIntel,60,,,,space,1,0.3359,0,40,40,42,1,X,space,,,,,,,,,,,,,,
,,,,,,,,,,,,,,,hania,001,111,2023-07-13_10h35.56.829,Trial go no go,2020.2.10,MacIntel,60,,,,space,1,0.2851,0,41,41,16,1,X,space,,,,,,,,,,,,,,
,,,,,,,,,,,,,,,hania,001,111,2023-07-13_10h35.56.829,Trial go no go,2020.2.10,MacIntel,60,,,,,1,,0,42,42,14,1,Y,none,,,,,,,,,,,,,,
,,,,,,,,,,,,,,,hania,001,111,2023-07-13_10h35.56.829,Trial go no go,2020.2.10,MacIntel,60,,,,space,1,0.2681,0,43,43,7,1,X,space,,,,,,,,,,,,,,
,,,,,,,,,,,,,,,hania,001,111,2023-07-13_10h35.56.829,Trial go no go,2020.2.10,MacIntel,60,,,,,1,,0,44,44,29,1,T,none,,,,,,,,,,,,,,
,,,,,,,,,,,,,,,hania,001,111,2023-07-13_10h35.56.829,Trial go no go,2020.2.10,MacIntel,60,,,,space,1,0.3012,0,45,45,13,1,X,space,,,,,,,,,,,,,,
,,,,,,,,,,,,,,,hania,001,111,2023-07-13_10h35.56.829,Trial go no go,2020.2.10,MacIntel,60,,,,space,1,0.3503,0,46,46,43,1,X,space,,,,,,,,,,,,,,
,,,,,,,,,,,,,,,hania,001,111,2023-07-13_10h35.56.829,Trial go no go,2020.2.10,MacIntel,60,,,,space,1,0.3199,0,47,47,47,1,X,space,,,,,,,,,,,,,,
,,,,,,,,,,,,,,,hania,001,111,2023-07-13_10h35.56.829,Trial go no go,2020.2.10,MacIntel,60,,,,space,1,0.3205,0,48,48,18,1,X,space,,,,,,,,,,,,,,
,,,,,,,,,,,,,,,hania,001,111,2023-07-13_10h35.56.829,Trial go no go,2020.2.10,MacIntel,60,,,,space,1,0.3029,0,49,49,33,1,X,space,,,,,,,,,,,,,,
,,,,,,,,,,,,,,,hania,001,111,2023-07-13_10h35.56.829,Trial go no go,2020.2.10,MacIntel,60,,,,,,,,,,,,,,z,11.8728,space,1,0.5877,0,0,0,3,1,T,space,,
,,,,,,,,,,,,,,,hania,001,111,2023-07-13_10h35.56.829,Trial go no go,2020.2.10,MacIntel,60,,,,,,,,,,,,,,,,space,1,0.4658,0,1,1,11,1,K,space,,
,,,,,,,,,,,,,,,hania,001,111,2023-07-13_10h35.56.829,Trial go no go,2020.2.10,MacIntel,60,,,,,,,,,,,,,,,,,1,,0,2,2,44,1,X,none,,
,,,,,,,,,,,,,,,hania,001,111,2023-07-13_10h35.56.829,Trial go no go,2020.2.10,MacIntel,60,,,,,,,,,,,,,,,,space,0,0.2764,0,3,3,24,1,X,none,,
,,,,,,,,,,,,,,,hania,001,111,2023-07-13_10h35.56.829,Trial go no go,2020.2.10,MacIntel,60,,,,,,,,,,,,,,,,space,1,0.3685,0,4,4,2,1,R,space,,
,,,,,,,,,,,,,,,hania,001,111,2023-07-13_10h35.56.829,Trial go no go,2020.2.10,MacIntel,60,,,,,,,,,,,,,,,,space,1,0.538,0,5,5,0,1,W,space,,
,,,,,,,,,,,,,,,hania,001,111,2023-07-13_10h35.56.829,Trial go no go,2020.2.10,MacIntel,60,,,,,,,,,,,,,,,,space,1,0.5502,0,6,6,28,1,H,space,,
,,,,,,,,,,,,,,,hania,001,111,2023-07-13_10h35.56.829,Trial go no go,2020.2.10,MacIntel,60,,,,,,,,,,,,,,,,space,1,0.3973,0,7,7,6,1,I,space,,
,,,,,,,,,,,,,,,hania,001,111,2023-07-13_10h35.56.829,Trial go no go,2020.2.10,MacIntel,60,,,,,,,,,,,,,,,,space,1,0.4899,0,8,8,5,1,Y,space,,
,,,,,,,,,,,,,,,hania,001,111,2023-07-13_10h35.56.829,Trial go no go,2020.2.10,MacIntel,60,,,,,,,,,,,,,,,,,1,,0,9,9,14,1,X,none,,
,,,,,,,,,,,,,,,hania,001,111,2023-07-13_10h35.56.829,Trial go no go,2020.2.10,MacIntel,60,,,,,,,,,,,,,,,,space,1,0.2831,0,10,10,30,1,K,space,,
,,,,,,,,,,,,,,,hania,001,111,2023-07-13_10h35.56.829,Trial go no go,2020.2.10,MacIntel,60,,,,,,,,,,,,,,,,space,1,0.3832,0,11,11,48,1,K,space,,
,,,,,,,,,,,,,,,hania,001,111,2023-07-13_10h35.56.829,Trial go no go,2020.2.10,MacIntel,60,,,,,,,,,,,,,,,,space,1,0.3337,0,12,12,37,1,W,space,,
,,,,,,,,,,,,,,,hania,001,111,2023-07-13_10h35.56.829,Trial go no go,2020.2.10,MacIntel,60,,,,,,,,,,,,,,,,space,1,0.3979,0,13,13,7,1,A,space,,
,,,,,,,,,,,,,,,hania,001,111,2023-07-13_10h35.56.829,Trial go no go,2020.2.10,MacIntel,60,,,,,,,,,,,,,,,,space,1,0.4002,0,14,14,23,1,Y,space,,
,,,,,,,,,,,,,,,hania,001,111,2023-07-13_10h35.56.829,Trial go no go,2020.2.10,MacIntel,60,,,,,,,,,,,,,,,,space,1,0.3889,0,15,15,33,1,V,space,,
,,,,,,,,,,,,,,,hania,001,111,2023-07-13_10h35.56.829,Trial go no go,2020.2.10,MacIntel,60,,,,,,,,,,,,,,,,space,1,0.3387,0,16,16,12,1,L,space,,
,,,,,,,,,,,,,,,hania,001,111,2023-07-13_10h35.56.829,Trial go no go,2020.2.10,MacIntel,60,,,,,,,,,,,,,,,,,1,,0,17,17,19,1,X,none,,
,,,,,,,,,,,,,,,hania,001,111,2023-07-13_10h35.56.829,Trial go no go,2020.2.10,MacIntel,60,,,,,,,,,,,,,,,,space,1,0.2842,0,18,18,36,1,M,space,,
,,,,,,,,,,,,,,,hania,001,111,2023-07-13_10h35.56.829,Trial go no go,2020.2.10,MacIntel,60,,,,,,,,,,,,,,,,space,1,0.3162,0,19,19,47,1,H,space,,
,,,,,,,,,,,,,,,hania,001,111,2023-07-13_10h35.56.829,Trial go no go,2020.2.10,MacIntel,60,,,,,,,,,,,,,,,,space,1,0.2851,0,20,20,26,1,A,space,,
,,,,,,,,,,,,,,,hania,001,111,2023-07-13_10h35.56.829,Trial go no go,2020.2.10,MacIntel,60,,,,,,,,,,,,,,,,space,1,0.3213,0,21,21,21,1,R,space,,
,,,,,,,,,,,,,,,hania,001,111,2023-07-13_10h35.56.829,Trial go no go,2020.2.10,MacIntel,60,,,,,,,,,,,,,,,,space,1,0.3645,0,22,22,45,1,A,space,,
,,,,,,,,,,,,,,,hania,001,111,2023-07-13_10h35.56.829,Trial go no go,2020.2.10,MacIntel,60,,,,,,,,,,,,,,,,space,1,0.3341,0,23,23,31,1,L,space,,
,,,,,,,,,,,,,,,hania,001,111,2023-07-13_10h35.56.829,Trial go no go,2020.2.10,MacIntel,60,,,,,,,,,,,,,,,,space,1,0.3648,0,24,24,38,1,E,space,,
,,,,,,,,,,,,,,,hania,001,111,2023-07-13_10h35.56.829,Trial go no go,2020.2.10,MacIntel,60,,,,,,,,,,,,,,,,space,1,0.3383,0,25,25,20,1,E,space,,
,,,,,,,,,,,,,,,hania,001,111,2023-07-13_10h35.56.829,Trial go no go,2020.2.10,MacIntel,60,,,,,,,,,,,,,,,,space,0,0.345,0,26,26,49,1,X,none,,
,,,,,,,,,,,,,,,hania,001,111,2023-07-13_10h35.56.829,Trial go no go,2020.2.10,MacIntel,60,,,,,,,,,,,,,,,,space,1,0.3662,0,27,27,35,1,N,space,,
,,,,,,,,,,,,,,,hania,001,111,2023-07-13_10h35.56.829,Trial go no go,2020.2.10,MacIntel,60,,,,,,,,,,,,,,,,,1,,0,28,28,39,1,X,none,,
,,,,,,,,,,,,,,,hania,001,111,2023-07-13_10h35.56.829,Trial go no go,2020.2.10,MacIntel,60,,,,,,,,,,,,,,,,space,1,0.2356,0,29,29,22,1,T,space,,
,,,,,,,,,,,,,,,hania,001,111,2023-07-13_10h35.56.829,Trial go no go,2020.2.10,MacIntel,60,,,,,,,,,,,,,,,,space,1,0.4737,0,30,30,43,1,I,space,,
,,,,,,,,,,,,,,,hania,001,111,2023-07-13_10h35.56.829,Trial go no go,2020.2.10,MacIntel,60,,,,,,,,,,,,,,,,space,1,0.3863,0,31,31,15,1,V,space,,
,,,,,,,,,,,,,,,hania,001,111,2023-07-13_10h35.56.829,Trial go no go,2020.2.10,MacIntel,60,,,,,,,,,,,,,,,,space,1,0.3456,0,32,32,40,1,R,space,,
,,,,,,,,,,,,,,,hania,001,111,2023-07-13_10h35.56.829,Trial go no go,2020.2.10,MacIntel,60,,,,,,,,,,,,,,,,space,0,0.3506,0,33,33,4,1,X,none,,
,,,,,,,,,,,,,,,hania,001,111,2023-07-13_10h35.56.829,Trial go no go,2020.2.10,MacIntel,60,,,,,,,,,,,,,,,,,1,,0,34,34,29,1,X,none,,
,,,,,,,,,,,,,,,hania,001,111,2023-07-13_10h35.56.829,Trial go no go,2020.2.10,MacIntel,60,,,,,,,,,,,,,,,,space,1,0.3396,0,35,35,17,1,M,space,,
,,,,,,,,,,,,,,,hania,001,111,2023-07-13_10h35.56.829,Trial go no go,2020.2.10,MacIntel,60,,,,,,,,,,,,,,,,,1,,0,36,36,9,1,X,none,,
,,,,,,,,,,,,,,,hania,001,111,2023-07-13_10h35.56.829,Trial go no go,2020.2.10,MacIntel,60,,,,,,,,,,,,,,,,space,1,0.2657,0,37,37,18,1,W,space,,
,,,,,,,,,,,,,,,hania,001,111,2023-07-13_10h35.56.829,Trial go no go,2020.2.10,MacIntel,60,,,,,,,,,,,,,,,,space,1,0.3157,0,38,38,27,1,F,space,,
,,,,,,,,,,,,,,,hania,001,111,2023-07-13_10h35.56.829,Trial go no go,2020.2.10,MacIntel,60,,,,,,,,,,,,,,,,space,1,0.3682,0,39,39,46,1,F,space,,
,,,,,,,,,,,,,,,hania,001,111,2023-07-13_10h35.56.829,Trial go no go,2020.2.10,MacIntel,60,,,,,,,,,,,,,,,,space,1,0.5184,0,40,40,32,1,Z,space,,
,,,,,,,,,,,,,,,hania,001,111,2023-07-13_10h35.56.829,Trial go no go,2020.2.10,MacIntel,60,,,,,,,,,,,,,,,,space,1,0.4024,0,41,41,13,1,Z,space,,
,,,,,,,,,,,,,,,hania,001,111,2023-07-13_10h35.56.829,Trial go no go,2020.2.10,MacIntel,60,,,,,,,,,,,,,,,,space,1,0.6762,0,42,42,42,1,Y,space,,
,,,,,,,,,,,,,,,hania,001,111,2023-07-13_10h35.56.829,Trial go no go,2020.2.10,MacIntel,60,,,,,,,,,,,,,,,,space,1,0.8658,0,43,43,1,1,E,space,,
,,,,,,,,,,,,,,,hania,001,111,2023-07-13_10h35.56.829,Trial go no go,2020.2.10,MacIntel,60,,,,,,,,,,,,,,,,,0,,0,44,44,25,1,I,space,,
,,,,,,,,,,,,,,,hania,001,111,2023-07-13_10h35.56.829,Trial go no go,2020.2.10,MacIntel,60,,,,,,,,,,,,,,,,space,1,0.0824,0,45,45,10,1,H,space,,
,,,,,,,,,,,,,,,hania,001,111,2023-07-13_10h35.56.829,Trial go no go,2020.2.10,MacIntel,60,,,,,,,,,,,,,,,,space,1,0.3173,0,46,46,8,1,F,space,,
,,,,,,,,,,,,,,,hania,001,111,2023-07-13_10h35.56.829,Trial go no go,2020.2.10,MacIntel,60,,,,,,,,,,,,,,,,,1,,0,47,47,34,1,X,none,,
,,,,,,,,,,,,,,,hania,001,111,2023-07-13_10h35.56.829,Trial go no go,2020.2.10,MacIntel,60,,,,,,,,,,,,,,,,space,1,0.2868,0,48,48,41,1,T,space,,
,,,,,,,,,,,,,,,hania,001,111,2023-07-13_10h35.56.829,Trial go no go,2020.2.10,MacIntel,60,,,,,,,,,,,,,,,,space,1,0.2622,0,49,49,16,1,N,space,,
,,,,,,,,,,,,,,,hania,001,111,2023-07-13_10h35.56.829,Trial go no go,2020.2.10,MacIntel,60,,,,,,,,,,,,,,,,,,,,,,,,,,space,20.5889
