resp_Welcome.keys,resp_Welcome.rt,resp_Instr_Intro.keys,resp_Instr_Intro.rt,resp_Instr_Prac1.keys,resp_Instr_Prac1.rt,resp_trial_Prac1.keys,resp_trial_Prac1.corr,prac_trials.thisRepN,prac_trials.thisTrialN,prac_trials.thisN,prac_trials.thisIndex,prac_trials.ran,stimulus_prac1,corrAns_prac1,participant,session,indywidualny kod,date,expName,psychopyVersion,OS,frameRate,resp_trial_Prac1.rt,resp_Instr_Test1.keys,resp_Instr_Test1.rt,resp_trial_Test1.keys,resp_trial_Test1.corr,resp_trial_Test1.rt,test1trial.thisRepN,test1trial.thisTrialN,test1trial.thisN,test1trial.thisIndex,test1trial.ran,stimulus_test1,corrAns_test1,resp_Instr_Test2.keys,resp_Instr_Test2.rt,key_resp_Test2.keys,key_resp_Test2.corr,key_resp_Test2.rt,test2trial.thisRepN,test2trial.thisTrialN,test2trial.thisN,test2trial.thisIndex,test2trial.ran,stimulus_test2,corrAns_test2,resp_theEnd.keys,resp_theEnd.rt
space,2.3147,space,1.1106,space,1.5357,,1,0,0,0,4,1,W,none,,001,,2023-07-11_17h48.32.040,Trial go no go,2020.2.10,Win32,60,,,,,,,,,,,,,,,,,,,,,,,,,,,
,,,,,,space,1,0,1,1,13,1,X,space,,001,,2023-07-11_17h48.32.040,Trial go no go,2020.2.10,Win32,60,1.0003,,,,,,,,,,,,,,,,,,,,,,,,,,
,,,,,,space,1,0,2,2,6,1,X,space,,001,,2023-07-11_17h48.32.040,Trial go no go,2020.2.10,Win32,60,0.6999,,,,,,,,,,,,,,,,,,,,,,,,,,
,,,,,,space,1,0,3,3,1,1,X,space,,001,,2023-07-11_17h48.32.040,Trial go no go,2020.2.10,Win32,60,0.4197,,,,,,,,,,,,,,,,,,,,,,,,,,
,,,,,,space,1,0,4,4,0,1,X,space,,001,,2023-07-11_17h48.32.040,Trial go no go,2020.2.10,Win32,60,0.3841,,,,,,,,,,,,,,,,,,,,,,,,,,
,,,,,,space,1,0,5,5,2,1,X,space,,001,,2023-07-11_17h48.32.040,Trial go no go,2020.2.10,Win32,60,0.4839,,,,,,,,,,,,,,,,,,,,,,,,,,
,,,,,,,1,0,6,6,14,1,K,none,,001,,2023-07-11_17h48.32.040,Trial go no go,2020.2.10,Win32,60,,,,,,,,,,,,,,,,,,,,,,,,,,,
,,,,,,space,1,0,7,7,8,1,X,space,,001,,2023-07-11_17h48.32.040,Trial go no go,2020.2.10,Win32,60,0.6854,,,,,,,,,,,,,,,,,,,,,,,,,,
,,,,,,space,0,0,8,8,9,1,V,none,,001,,2023-07-11_17h48.32.040,Trial go no go,2020.2.10,Win32,60,0.5067,,,,,,,,,,,,,,,,,,,,,,,,,,
,,,,,,space,1,0,9,9,7,1,X,space,,001,,2023-07-11_17h48.32.040,Trial go no go,2020.2.10,Win32,60,0.5192,,,,,,,,,,,,,,,,,,,,,,,,,,
,,,,,,space,1,0,10,10,5,1,X,space,,001,,2023-07-11_17h48.32.040,Trial go no go,2020.2.10,Win32,60,0.4842,,,,,,,,,,,,,,,,,,,,,,,,,,
,,,,,,space,1,0,11,11,3,1,X,space,,001,,2023-07-11_17h48.32.040,Trial go no go,2020.2.10,Win32,60,0.4746,,,,,,,,,,,,,,,,,,,,,,,,,,
,,,,,,space,1,0,12,12,12,1,X,space,,001,,2023-07-11_17h48.32.040,Trial go no go,2020.2.10,Win32,60,0.5864,,,,,,,,,,,,,,,,,,,,,,,,,,
,,,,,,space,1,0,13,13,11,1,X,space,,001,,2023-07-11_17h48.32.040,Trial go no go,2020.2.10,Win32,60,0.4696,,,,,,,,,,,,,,,,,,,,,,,,,,
,,,,,,space,1,0,14,14,10,1,X,space,,001,,2023-07-11_17h48.32.040,Trial go no go,2020.2.10,Win32,60,0.4861,,,,,,,,,,,,,,,,,,,,,,,,,,
,,,,,,,,,,,,,,,,001,,2023-07-11_17h48.32.040,Trial go no go,2020.2.10,Win32,60,,space,2.0568,space,1,0.6139,0,0,0,32,1,X,space,,,,,,,,,,,,,,
,,,,,,,,,,,,,,,,001,,2023-07-11_17h48.32.040,Trial go no go,2020.2.10,Win32,60,,,,space,1,0.2875,0,1,1,45,1,X,space,,,,,,,,,,,,,,
,,,,,,,,,,,,,,,,001,,2023-07-11_17h48.32.040,Trial go no go,2020.2.10,Win32,60,,,,space,1,0.2359,0,2,2,20,1,X,space,,,,,,,,,,,,,,
,,,,,,,,,,,,,,,,001,,2023-07-11_17h48.32.040,Trial go no go,2020.2.10,Win32,60,,,,space,1,0.0735,0,3,3,36,1,X,space,,,,,,,,,,,,,,
,,,,,,,,,,,,,,,,001,,2023-07-11_17h48.32.040,Trial go no go,2020.2.10,Win32,60,,,,space,1,0.7209,0,4,4,35,1,X,space,,,,,,,,,,,,,,
,,,,,,,,,,,,,,,,001,,2023-07-11_17h48.32.040,Trial go no go,2020.2.10,Win32,60,,,,space,1,0.4685,0,5,5,23,1,X,space,,,,,,,,,,,,,,
,,,,,,,,,,,,,,,,001,,2023-07-11_17h48.32.040,Trial go no go,2020.2.10,Win32,60,,,,space,1,0.3819,0,6,6,7,1,X,space,,,,,,,,,,,,,,
,,,,,,,,,,,,,,,,001,,2023-07-11_17h48.32.040,Trial go no go,2020.2.10,Win32,60,,,,,1,,0,7,7,19,1,K,none,,,,,,,,,,,,,,
,,,,,,,,,,,,,,,,001,,2023-07-11_17h48.32.040,Trial go no go,2020.2.10,Win32,60,,,,space,1,0.2669,0,8,8,31,1,X,space,,,,,,,,,,,,,,
,,,,,,,,,,,,,,,,001,,2023-07-11_17h48.32.040,Trial go no go,2020.2.10,Win32,60,,,,space,1,0.2692,0,9,9,26,1,X,space,,,,,,,,,,,,,,
,,,,,,,,,,,,,,,,001,,2023-07-11_17h48.32.040,Trial go no go,2020.2.10,Win32,60,,,,space,1,0.2757,0,10,10,5,1,X,space,,,,,,,,,,,,,,
,,,,,,,,,,,,,,,,001,,2023-07-11_17h48.32.040,Trial go no go,2020.2.10,Win32,60,,,,space,1,0.2653,0,11,11,33,1,X,space,,,,,,,,,,,,,,
,,,,,,,,,,,,,,,,001,,2023-07-11_17h48.32.040,Trial go no go,2020.2.10,Win32,60,,,,space,1,0.3525,0,12,12,16,1,X,space,,,,,,,,,,,,,,
,,,,,,,,,,,,,,,,001,,2023-07-11_17h48.32.040,Trial go no go,2020.2.10,Win32,60,,,,space,1,0.3331,0,13,13,38,1,X,space,,,,,,,,,,,,,,
,,,,,,,,,,,,,,,,001,,2023-07-11_17h48.32.040,Trial go no go,2020.2.10,Win32,60,,,,space,1,0.3413,0,14,14,42,1,X,space,,,,,,,,,,,,,,
,,,,,,,,,,,,,,,,001,,2023-07-11_17h48.32.040,Trial go no go,2020.2.10,Win32,60,,,,space,1,0.305,0,15,15,40,1,X,space,,,,,,,,,,,,,,
,,,,,,,,,,,,,,,,001,,2023-07-11_17h48.32.040,Trial go no go,2020.2.10,Win32,60,,,,space,0,0.2284,0,16,16,9,1,W,none,,,,,,,,,,,,,,
,,,,,,,,,,,,,,,,001,,2023-07-11_17h48.32.040,Trial go no go,2020.2.10,Win32,60,,,,space,1,0.2971,0,17,17,46,1,X,space,,,,,,,,,,,,,,
,,,,,,,,,,,,,,,,001,,2023-07-11_17h48.32.040,Trial go no go,2020.2.10,Win32,60,,,,space,0,0.3502,0,18,18,34,1,N,none,,,,,,,,,,,,,,
,,,,,,,,,,,,,,,,001,,2023-07-11_17h48.32.040,Trial go no go,2020.2.10,Win32,60,,,,space,1,0.413,0,19,19,48,1,X,space,,,,,,,,,,,,,,
,,,,,,,,,,,,,,,,001,,2023-07-11_17h48.32.040,Trial go no go,2020.2.10,Win32,60,,,,space,1,0.3681,0,20,20,47,1,X,space,,,,,,,,,,,,,,
,,,,,,,,,,,,,,,,001,,2023-07-11_17h48.32.040,Trial go no go,2020.2.10,Win32,60,,,,space,0,0.3287,0,21,21,14,1,Y,none,,,,,,,,,,,,,,
,,,,,,,,,,,,,,,,001,,2023-07-11_17h48.32.040,Trial go no go,2020.2.10,Win32,60,,,,space,1,0.3158,0,22,22,27,1,X,space,,,,,,,,,,,,,,
,,,,,,,,,,,,,,,,001,,2023-07-11_17h48.32.040,Trial go no go,2020.2.10,Win32,60,,,,space,1,0.3431,0,23,23,37,1,X,space,,,,,,,,,,,,,,
,,,,,,,,,,,,,,,,001,,2023-07-11_17h48.32.040,Trial go no go,2020.2.10,Win32,60,,,,space,1,0.3184,0,24,24,41,1,X,space,,,,,,,,,,,,,,
,,,,,,,,,,,,,,,,001,,2023-07-11_17h48.32.040,Trial go no go,2020.2.10,Win32,60,,,,space,1,0.3254,0,25,25,13,1,X,space,,,,,,,,,,,,,,
,,,,,,,,,,,,,,,,001,,2023-07-11_17h48.32.040,Trial go no go,2020.2.10,Win32,60,,,,space,1,0.289,0,26,26,21,1,X,space,,,,,,,,,,,,,,
,,,,,,,,,,,,,,,,001,,2023-07-11_17h48.32.040,Trial go no go,2020.2.10,Win32,60,,,,space,0,0.319,0,27,27,39,1,M,none,,,,,,,,,,,,,,
,,,,,,,,,,,,,,,,001,,2023-07-11_17h48.32.040,Trial go no go,2020.2.10,Win32,60,,,,space,1,0.4176,0,28,28,18,1,X,space,,,,,,,,,,,,,,
,,,,,,,,,,,,,,,,001,,2023-07-11_17h48.32.040,Trial go no go,2020.2.10,Win32,60,,,,space,1,0.3635,0,29,29,3,1,X,space,,,,,,,,,,,,,,
,,,,,,,,,,,,,,,,001,,2023-07-11_17h48.32.040,Trial go no go,2020.2.10,Win32,60,,,,space,1,0.3027,0,30,30,6,1,X,space,,,,,,,,,,,,,,
,,,,,,,,,,,,,,,,001,,2023-07-11_17h48.32.040,Trial go no go,2020.2.10,Win32,60,,,,space,1,0.4683,0,31,31,10,1,X,space,,,,,,,,,,,,,,
,,,,,,,,,,,,,,,,001,,2023-07-11_17h48.32.040,Trial go no go,2020.2.10,Win32,60,,,,space,1,0.3386,0,32,32,17,1,X,space,,,,,,,,,,,,,,
,,,,,,,,,,,,,,,,001,,2023-07-11_17h48.32.040,Trial go no go,2020.2.10,Win32,60,,,,space,0,0.2466,0,33,33,29,1,T,none,,,,,,,,,,,,,,
,,,,,,,,,,,,,,,,001,,2023-07-11_17h48.32.040,Trial go no go,2020.2.10,Win32,60,,,,space,0,0.3396,0,34,34,4,1,V,none,,,,,,,,,,,,,,
,,,,,,,,,,,,,,,,001,,2023-07-11_17h48.32.040,Trial go no go,2020.2.10,Win32,60,,,,space,1,0.3344,0,35,35,30,1,X,space,,,,,,,,,,,,,,
,,,,,,,,,,,,,,,,001,,2023-07-11_17h48.32.040,Trial go no go,2020.2.10,Win32,60,,,,space,1,0.3526,0,36,36,15,1,X,space,,,,,,,,,,,,,,
,,,,,,,,,,,,,,,,001,,2023-07-11_17h48.32.040,Trial go no go,2020.2.10,Win32,60,,,,space,1,0.3611,0,37,37,43,1,X,space,,,,,,,,,,,,,,
,,,,,,,,,,,,,,,,001,,2023-07-11_17h48.32.040,Trial go no go,2020.2.10,Win32,60,,,,space,1,0.1828,0,38,38,22,1,X,space,,,,,,,,,,,,,,
,,,,,,,,,,,,,,,,001,,2023-07-11_17h48.32.040,Trial go no go,2020.2.10,Win32,60,,,,space,1,0.3667,0,39,39,0,1,X,space,,,,,,,,,,,,,,
,,,,,,,,,,,,,,,,001,,2023-07-11_17h48.32.040,Trial go no go,2020.2.10,Win32,60,,,,space,0,0.3382,0,40,40,44,1,F,none,,,,,,,,,,,,,,
,,,,,,,,,,,,,,,,001,,2023-07-11_17h48.32.040,Trial go no go,2020.2.10,Win32,60,,,,space,1,0.2163,0,41,41,8,1,X,space,,,,,,,,,,,,,,
,,,,,,,,,,,,,,,,001,,2023-07-11_17h48.32.040,Trial go no go,2020.2.10,Win32,60,,,,space,1,0.2985,0,42,42,28,1,X,space,,,,,,,,,,,,,,
,,,,,,,,,,,,,,,,001,,2023-07-11_17h48.32.040,Trial go no go,2020.2.10,Win32,60,,,,space,1,0.2643,0,43,43,25,1,X,space,,,,,,,,,,,,,,
,,,,,,,,,,,,,,,,001,,2023-07-11_17h48.32.040,Trial go no go,2020.2.10,Win32,60,,,,space,1,0.2442,0,44,44,12,1,X,space,,,,,,,,,,,,,,
,,,,,,,,,,,,,,,,001,,2023-07-11_17h48.32.040,Trial go no go,2020.2.10,Win32,60,,,,space,1,0.251,0,45,45,11,1,X,space,,,,,,,,,,,,,,
,,,,,,,,,,,,,,,,001,,2023-07-11_17h48.32.040,Trial go no go,2020.2.10,Win32,60,,,,space,1,0.2334,0,46,46,1,1,X,space,,,,,,,,,,,,,,
,,,,,,,,,,,,,,,,001,,2023-07-11_17h48.32.040,Trial go no go,2020.2.10,Win32,60,,,,space,0,0.253,0,47,47,24,1,H,none,,,,,,,,,,,,,,
,,,,,,,,,,,,,,,,001,,2023-07-11_17h48.32.040,Trial go no go,2020.2.10,Win32,60,,,,space,0,0.3929,0,48,48,49,1,E,none,,,,,,,,,,,,,,
,,,,,,,,,,,,,,,,001,,2023-07-11_17h48.32.040,Trial go no go,2020.2.10,Win32,60,,,,space,1,0.3299,0,49,49,2,1,X,space,,,,,,,,,,,,,,
,,,,,,,,,,,,,,,,001,,2023-07-11_17h48.32.040,Trial go no go,2020.2.10,Win32,60,,,,,,,,,,,,,,z,6.989,space,0,0.6714,0,0,0,29,1,X,none,,
,,,,,,,,,,,,,,,,001,,2023-07-11_17h48.32.040,Trial go no go,2020.2.10,Win32,60,,,,,,,,,,,,,,,,,0,,0,1,1,6,1,I,space,,
,,,,,,,,,,,,,,,,001,,2023-07-11_17h48.32.040,Trial go no go,2020.2.10,Win32,60,,,,,,,,,,,,,,,,space,1,0.5425,0,2,2,2,1,R,space,,
,,,,,,,,,,,,,,,,001,,2023-07-11_17h48.32.040,Trial go no go,2020.2.10,Win32,60,,,,,,,,,,,,,,,,space,1,0.5419,0,3,3,21,1,R,space,,
,,,,,,,,,,,,,,,,001,,2023-07-11_17h48.32.040,Trial go no go,2020.2.10,Win32,60,,,,,,,,,,,,,,,,space,1,0.3355,0,4,4,1,1,E,space,,
,,,,,,,,,,,,,,,,001,,2023-07-11_17h48.32.040,Trial go no go,2020.2.10,Win32,60,,,,,,,,,,,,,,,,space,1,0.2657,0,5,5,45,1,A,space,,
,,,,,,,,,,,,,,,,001,,2023-07-11_17h48.32.040,Trial go no go,2020.2.10,Win32,60,,,,,,,,,,,,,,,,,0,,0,6,6,32,1,Z,space,,
,,,,,,,,,,,,,,,,001,,2023-07-11_17h48.32.040,Trial go no go,2020.2.10,Win32,60,,,,,,,,,,,,,,,,space,1,0.2341,0,7,7,11,1,K,space,,
,,,,,,,,,,,,,,,,001,,2023-07-11_17h48.32.040,Trial go no go,2020.2.10,Win32,60,,,,,,,,,,,,,,,,space,1,0.3013,0,8,8,8,1,F,space,,
,,,,,,,,,,,,,,,,001,,2023-07-11_17h48.32.040,Trial go no go,2020.2.10,Win32,60,,,,,,,,,,,,,,,,space,0,0.306,0,9,9,19,1,X,none,,
,,,,,,,,,,,,,,,,001,,2023-07-11_17h48.32.040,Trial go no go,2020.2.10,Win32,60,,,,,,,,,,,,,,,,space,1,0.3452,0,10,10,33,1,V,space,,
,,,,,,,,,,,,,,,,001,,2023-07-11_17h48.32.040,Trial go no go,2020.2.10,Win32,60,,,,,,,,,,,,,,,,space,1,0.3802,0,11,11,48,1,K,space,,
,,,,,,,,,,,,,,,,001,,2023-07-11_17h48.32.040,Trial go no go,2020.2.10,Win32,60,,,,,,,,,,,,,,,,space,1,0.4117,0,12,12,27,1,F,space,,
,,,,,,,,,,,,,,,,001,,2023-07-11_17h48.32.040,Trial go no go,2020.2.10,Win32,60,,,,,,,,,,,,,,,,space,1,0.4643,0,13,13,17,1,M,space,,
,,,,,,,,,,,,,,,,001,,2023-07-11_17h48.32.040,Trial go no go,2020.2.10,Win32,60,,,,,,,,,,,,,,,,space,0,0.3373,0,14,14,4,1,X,none,,
,,,,,,,,,,,,,,,,001,,2023-07-11_17h48.32.040,Trial go no go,2020.2.10,Win32,60,,,,,,,,,,,,,,,,space,0,0.4016,0,15,15,44,1,X,none,,
,,,,,,,,,,,,,,,,001,,2023-07-11_17h48.32.040,Trial go no go,2020.2.10,Win32,60,,,,,,,,,,,,,,,,space,1,0.349,0,16,16,47,1,H,space,,
,,,,,,,,,,,,,,,,001,,2023-07-11_17h48.32.040,Trial go no go,2020.2.10,Win32,60,,,,,,,,,,,,,,,,space,1,0.3036,0,17,17,15,1,V,space,,
,,,,,,,,,,,,,,,,001,,2023-07-11_17h48.32.040,Trial go no go,2020.2.10,Win32,60,,,,,,,,,,,,,,,,space,1,0.2959,0,18,18,28,1,H,space,,
,,,,,,,,,,,,,,,,001,,2023-07-11_17h48.32.040,Trial go no go,2020.2.10,Win32,60,,,,,,,,,,,,,,,,space,1,0.3525,0,19,19,40,1,R,space,,
,,,,,,,,,,,,,,,,001,,2023-07-11_17h48.32.040,Trial go no go,2020.2.10,Win32,60,,,,,,,,,,,,,,,,space,0,0.4627,0,20,20,14,1,X,none,,
,,,,,,,,,,,,,,,,001,,2023-07-11_17h48.32.040,Trial go no go,2020.2.10,Win32,60,,,,,,,,,,,,,,,,space,1,0.3392,0,21,21,41,1,T,space,,
,,,,,,,,,,,,,,,,001,,2023-07-11_17h48.32.040,Trial go no go,2020.2.10,Win32,60,,,,,,,,,,,,,,,,space,1,0.3462,0,22,22,18,1,W,space,,
,,,,,,,,,,,,,,,,001,,2023-07-11_17h48.32.040,Trial go no go,2020.2.10,Win32,60,,,,,,,,,,,,,,,,space,1,0.3352,0,23,23,16,1,N,space,,
,,,,,,,,,,,,,,,,001,,2023-07-11_17h48.32.040,Trial go no go,2020.2.10,Win32,60,,,,,,,,,,,,,,,,space,0,0.3626,0,24,24,34,1,X,none,,
,,,,,,,,,,,,,,,,001,,2023-07-11_17h48.32.040,Trial go no go,2020.2.10,Win32,60,,,,,,,,,,,,,,,,space,1,0.3733,0,25,25,25,1,I,space,,
,,,,,,,,,,,,,,,,001,,2023-07-11_17h48.32.040,Trial go no go,2020.2.10,Win32,60,,,,,,,,,,,,,,,,space,0,0.4333,0,26,26,49,1,X,none,,
,,,,,,,,,,,,,,,,001,,2023-07-11_17h48.32.040,Trial go no go,2020.2.10,Win32,60,,,,,,,,,,,,,,,,space,1,0.4177,0,27,27,46,1,F,space,,
,,,,,,,,,,,,,,,,001,,2023-07-11_17h48.32.040,Trial go no go,2020.2.10,Win32,60,,,,,,,,,,,,,,,,space,1,0.7378,0,28,28,3,1,T,space,,
,,,,,,,,,,,,,,,,001,,2023-07-11_17h48.32.040,Trial go no go,2020.2.10,Win32,60,,,,,,,,,,,,,,,,,1,,0,29,29,9,1,X,none,,
,,,,,,,,,,,,,,,,001,,2023-07-11_17h48.32.040,Trial go no go,2020.2.10,Win32,60,,,,,,,,,,,,,,,,space,1,0.3721,0,30,30,36,1,M,space,,
,,,,,,,,,,,,,,,,001,,2023-07-11_17h48.32.040,Trial go no go,2020.2.10,Win32,60,,,,,,,,,,,,,,,,space,1,0.3685,0,31,31,26,1,A,space,,
,,,,,,,,,,,,,,,,001,,2023-07-11_17h48.32.040,Trial go no go,2020.2.10,Win32,60,,,,,,,,,,,,,,,,space,1,0.4575,0,32,32,38,1,E,space,,
,,,,,,,,,,,,,,,,001,,2023-07-11_17h48.32.040,Trial go no go,2020.2.10,Win32,60,,,,,,,,,,,,,,,,space,1,0.4515,0,33,33,20,1,E,space,,
,,,,,,,,,,,,,,,,001,,2023-07-11_17h48.32.040,Trial go no go,2020.2.10,Win32,60,,,,,,,,,,,,,,,,space,1,0.3674,0,34,34,31,1,L,space,,
,,,,,,,,,,,,,,,,001,,2023-07-11_17h48.32.040,Trial go no go,2020.2.10,Win32,60,,,,,,,,,,,,,,,,space,1,0.5661,0,35,35,30,1,K,space,,
,,,,,,,,,,,,,,,,001,,2023-07-11_17h48.32.040,Trial go no go,2020.2.10,Win32,60,,,,,,,,,,,,,,,,space,0,0.7457,0,36,36,24,1,X,none,,
,,,,,,,,,,,,,,,,001,,2023-07-11_17h48.32.040,Trial go no go,2020.2.10,Win32,60,,,,,,,,,,,,,,,,,1,,0,37,37,39,1,X,none,,
,,,,,,,,,,,,,,,,001,,2023-07-11_17h48.32.040,Trial go no go,2020.2.10,Win32,60,,,,,,,,,,,,,,,,space,1,0.0962,0,38,38,43,1,I,space,,
,,,,,,,,,,,,,,,,001,,2023-07-11_17h48.32.040,Trial go no go,2020.2.10,Win32,60,,,,,,,,,,,,,,,,space,1,0.3147,0,39,39,42,1,Y,space,,
,,,,,,,,,,,,,,,,001,,2023-07-11_17h48.32.040,Trial go no go,2020.2.10,Win32,60,,,,,,,,,,,,,,,,space,1,0.3641,0,40,40,22,1,T,space,,
,,,,,,,,,,,,,,,,001,,2023-07-11_17h48.32.040,Trial go no go,2020.2.10,Win32,60,,,,,,,,,,,,,,,,space,1,0.4973,0,41,41,5,1,Y,space,,
,,,,,,,,,,,,,,,,001,,2023-07-11_17h48.32.040,Trial go no go,2020.2.10,Win32,60,,,,,,,,,,,,,,,,space,1,0.4968,0,42,42,7,1,A,space,,
,,,,,,,,,,,,,,,,001,,2023-07-11_17h48.32.040,Trial go no go,2020.2.10,Win32,60,,,,,,,,,,,,,,,,space,1,0.3646,0,43,43,37,1,W,space,,
,,,,,,,,,,,,,,,,001,,2023-07-11_17h48.32.040,Trial go no go,2020.2.10,Win32,60,,,,,,,,,,,,,,,,space,1,0.3134,0,44,44,23,1,Y,space,,
,,,,,,,,,,,,,,,,001,,2023-07-11_17h48.32.040,Trial go no go,2020.2.10,Win32,60,,,,,,,,,,,,,,,,space,1,0.2798,0,45,45,13,1,Z,space,,
,,,,,,,,,,,,,,,,001,,2023-07-11_17h48.32.040,Trial go no go,2020.2.10,Win32,60,,,,,,,,,,,,,,,,space,1,0.2727,0,46,46,12,1,L,space,,
,,,,,,,,,,,,,,,,001,,2023-07-11_17h48.32.040,Trial go no go,2020.2.10,Win32,60,,,,,,,,,,,,,,,,space,1,0.2642,0,47,47,0,1,W,space,,
,,,,,,,,,,,,,,,,001,,2023-07-11_17h48.32.040,Trial go no go,2020.2.10,Win32,60,,,,,,,,,,,,,,,,space,1,0.252,0,48,48,35,1,N,space,,
,,,,,,,,,,,,,,,,001,,2023-07-11_17h48.32.040,Trial go no go,2020.2.10,Win32,60,,,,,,,,,,,,,,,,space,1,0.2961,0,49,49,10,1,H,space,,
,,,,,,,,,,,,,,,,001,,2023-07-11_17h48.32.040,Trial go no go,2020.2.10,Win32,60,,,,,,,,,,,,,,,,,,,,,,,,,,space,4.1016
