resp_Welcome.keys,resp_Welcome.rt,resp_Instr_Intro.keys,resp_Instr_Intro.rt,resp_Instr_Prac1.keys,resp_Instr_Prac1.rt,resp_trial_Prac1.keys,resp_trial_Prac1.corr,resp_trial_Prac1.rt,prac_trials.thisRepN,prac_trials.thisTrialN,prac_trials.thisN,prac_trials.thisIndex,prac_trials.ran,stimulus_prac1,corrAns_prac1,participant,session,indywidualny kod,date,expName,psychopyVersion,OS,frameRate,resp_Instr_Test1.keys,resp_Instr_Test1.rt,resp_trial_Test1.keys,resp_trial_Test1.corr,resp_trial_Test1.rt,test1trial.thisRepN,test1trial.thisTrialN,test1trial.thisN,test1trial.thisIndex,test1trial.ran,stimulus_test1,corrAns_test1,resp_Instr_Test2.keys,resp_Instr_Test2.rt,key_resp_Test2.keys,key_resp_Test2.corr,test2trial.thisRepN,test2trial.thisTrialN,test2trial.thisN,test2trial.thisIndex,test2trial.ran,stimulus_test2,corrAns_test2,resp_theEnd.keys,resp_theEnd.rt
space,16.4181,space,44.1561,space,13.5646,space,1,0.6204,0,0,0,6,1,X,space,PUM07K,001,PUM07K,2024-01-15_08h43.46.210,Trial go no go,2020.2.10,Win32,60,,,,,,,,,,,,,,,,,,,,,,,,,
,,,,,,space,1,0.5174,0,1,1,10,1,X,space,PUM07K,001,PUM07K,2024-01-15_08h43.46.210,Trial go no go,2020.2.10,Win32,60,,,,,,,,,,,,,,,,,,,,,,,,,
,,,,,,space,1,0.4507,0,2,2,1,1,X,space,PUM07K,001,PUM07K,2024-01-15_08h43.46.210,Trial go no go,2020.2.10,Win32,60,,,,,,,,,,,,,,,,,,,,,,,,,
,,,,,,,1,,0,3,3,4,1,W,none,PUM07K,001,PUM07K,2024-01-15_08h43.46.210,Trial go no go,2020.2.10,Win32,60,,,,,,,,,,,,,,,,,,,,,,,,,
,,,,,,space,1,0.5509,0,4,4,8,1,X,space,PUM07K,001,PUM07K,2024-01-15_08h43.46.210,Trial go no go,2020.2.10,Win32,60,,,,,,,,,,,,,,,,,,,,,,,,,
,,,,,,,1,,0,5,5,9,1,V,none,PUM07K,001,PUM07K,2024-01-15_08h43.46.210,Trial go no go,2020.2.10,Win32,60,,,,,,,,,,,,,,,,,,,,,,,,,
,,,,,,space,1,0.4689,0,6,6,13,1,X,space,PUM07K,001,PUM07K,2024-01-15_08h43.46.210,Trial go no go,2020.2.10,Win32,60,,,,,,,,,,,,,,,,,,,,,,,,,
,,,,,,space,1,0.3917,0,7,7,5,1,X,space,PUM07K,001,PUM07K,2024-01-15_08h43.46.210,Trial go no go,2020.2.10,Win32,60,,,,,,,,,,,,,,,,,,,,,,,,,
,,,,,,space,1,0.3442,0,8,8,0,1,X,space,PUM07K,001,PUM07K,2024-01-15_08h43.46.210,Trial go no go,2020.2.10,Win32,60,,,,,,,,,,,,,,,,,,,,,,,,,
,,,,,,space,1,0.3933,0,9,9,7,1,X,space,PUM07K,001,PUM07K,2024-01-15_08h43.46.210,Trial go no go,2020.2.10,Win32,60,,,,,,,,,,,,,,,,,,,,,,,,,
,,,,,,space,1,0.3789,0,10,10,12,1,X,space,PUM07K,001,PUM07K,2024-01-15_08h43.46.210,Trial go no go,2020.2.10,Win32,60,,,,,,,,,,,,,,,,,,,,,,,,,
,,,,,,space,1,0.3337,0,11,11,11,1,X,space,PUM07K,001,PUM07K,2024-01-15_08h43.46.210,Trial go no go,2020.2.10,Win32,60,,,,,,,,,,,,,,,,,,,,,,,,,
,,,,,,space,1,0.334,0,12,12,2,1,X,space,PUM07K,001,PUM07K,2024-01-15_08h43.46.210,Trial go no go,2020.2.10,Win32,60,,,,,,,,,,,,,,,,,,,,,,,,,
,,,,,,space,1,0.3196,0,13,13,3,1,X,space,PUM07K,001,PUM07K,2024-01-15_08h43.46.210,Trial go no go,2020.2.10,Win32,60,,,,,,,,,,,,,,,,,,,,,,,,,
,,,,,,,1,,0,14,14,14,1,K,none,PUM07K,001,PUM07K,2024-01-15_08h43.46.210,Trial go no go,2020.2.10,Win32,60,,,,,,,,,,,,,,,,,,,,,,,,,
,,,,,,,,,,,,,,,,PUM07K,001,PUM07K,2024-01-15_08h43.46.210,Trial go no go,2020.2.10,Win32,60,space,4.0218,space,1,0.6196,0,0,0,38,1,X,space,,,,,,,,,,,,,
,,,,,,,,,,,,,,,,PUM07K,001,PUM07K,2024-01-15_08h43.46.210,Trial go no go,2020.2.10,Win32,60,,,space,1,0.3068,0,1,1,12,1,X,space,,,,,,,,,,,,,
,,,,,,,,,,,,,,,,PUM07K,001,PUM07K,2024-01-15_08h43.46.210,Trial go no go,2020.2.10,Win32,60,,,space,0,0.3336,0,2,2,44,1,F,none,,,,,,,,,,,,,
,,,,,,,,,,,,,,,,PUM07K,001,PUM07K,2024-01-15_08h43.46.210,Trial go no go,2020.2.10,Win32,60,,,space,1,0.3048,0,3,3,1,1,X,space,,,,,,,,,,,,,
,,,,,,,,,,,,,,,,PUM07K,001,PUM07K,2024-01-15_08h43.46.210,Trial go no go,2020.2.10,Win32,60,,,space,1,0.3439,0,4,4,17,1,X,space,,,,,,,,,,,,,
,,,,,,,,,,,,,,,,PUM07K,001,PUM07K,2024-01-15_08h43.46.210,Trial go no go,2020.2.10,Win32,60,,,,1,,0,5,5,4,1,V,none,,,,,,,,,,,,,
,,,,,,,,,,,,,,,,PUM07K,001,PUM07K,2024-01-15_08h43.46.210,Trial go no go,2020.2.10,Win32,60,,,space,1,0.2619,0,6,6,10,1,X,space,,,,,,,,,,,,,
,,,,,,,,,,,,,,,,PUM07K,001,PUM07K,2024-01-15_08h43.46.210,Trial go no go,2020.2.10,Win32,60,,,space,1,0.4503,0,7,7,37,1,X,space,,,,,,,,,,,,,
,,,,,,,,,,,,,,,,PUM07K,001,PUM07K,2024-01-15_08h43.46.210,Trial go no go,2020.2.10,Win32,60,,,space,1,0.372,0,8,8,3,1,X,space,,,,,,,,,,,,,
,,,,,,,,,,,,,,,,PUM07K,001,PUM07K,2024-01-15_08h43.46.210,Trial go no go,2020.2.10,Win32,60,,,space,1,0.3503,0,9,9,32,1,X,space,,,,,,,,,,,,,
,,,,,,,,,,,,,,,,PUM07K,001,PUM07K,2024-01-15_08h43.46.210,Trial go no go,2020.2.10,Win32,60,,,space,1,0.2899,0,10,10,47,1,X,space,,,,,,,,,,,,,
,,,,,,,,,,,,,,,,PUM07K,001,PUM07K,2024-01-15_08h43.46.210,Trial go no go,2020.2.10,Win32,60,,,space,1,0.3003,0,11,11,46,1,X,space,,,,,,,,,,,,,
,,,,,,,,,,,,,,,,PUM07K,001,PUM07K,2024-01-15_08h43.46.210,Trial go no go,2020.2.10,Win32,60,,,space,1,0.3038,0,12,12,23,1,X,space,,,,,,,,,,,,,
,,,,,,,,,,,,,,,,PUM07K,001,PUM07K,2024-01-15_08h43.46.210,Trial go no go,2020.2.10,Win32,60,,,space,1,0.2787,0,13,13,25,1,X,space,,,,,,,,,,,,,
,,,,,,,,,,,,,,,,PUM07K,001,PUM07K,2024-01-15_08h43.46.210,Trial go no go,2020.2.10,Win32,60,,,space,1,0.3018,0,14,14,7,1,X,space,,,,,,,,,,,,,
,,,,,,,,,,,,,,,,PUM07K,001,PUM07K,2024-01-15_08h43.46.210,Trial go no go,2020.2.10,Win32,60,,,,1,,0,15,15,39,1,M,none,,,,,,,,,,,,,
,,,,,,,,,,,,,,,,PUM07K,001,PUM07K,2024-01-15_08h43.46.210,Trial go no go,2020.2.10,Win32,60,,,space,1,0.2676,0,16,16,40,1,X,space,,,,,,,,,,,,,
,,,,,,,,,,,,,,,,PUM07K,001,PUM07K,2024-01-15_08h43.46.210,Trial go no go,2020.2.10,Win32,60,,,space,1,0.3077,0,17,17,5,1,X,space,,,,,,,,,,,,,
,,,,,,,,,,,,,,,,PUM07K,001,PUM07K,2024-01-15_08h43.46.210,Trial go no go,2020.2.10,Win32,60,,,space,1,0.3002,0,18,18,16,1,X,space,,,,,,,,,,,,,
,,,,,,,,,,,,,,,,PUM07K,001,PUM07K,2024-01-15_08h43.46.210,Trial go no go,2020.2.10,Win32,60,,,space,1,0.2742,0,19,19,6,1,X,space,,,,,,,,,,,,,
,,,,,,,,,,,,,,,,PUM07K,001,PUM07K,2024-01-15_08h43.46.210,Trial go no go,2020.2.10,Win32,60,,,space,1,0.3169,0,20,20,2,1,X,space,,,,,,,,,,,,,
,,,,,,,,,,,,,,,,PUM07K,001,PUM07K,2024-01-15_08h43.46.210,Trial go no go,2020.2.10,Win32,60,,,,1,,0,21,21,49,1,E,none,,,,,,,,,,,,,
,,,,,,,,,,,,,,,,PUM07K,001,PUM07K,2024-01-15_08h43.46.210,Trial go no go,2020.2.10,Win32,60,,,space,1,0.2947,0,22,22,41,1,X,space,,,,,,,,,,,,,
,,,,,,,,,,,,,,,,PUM07K,001,PUM07K,2024-01-15_08h43.46.210,Trial go no go,2020.2.10,Win32,60,,,space,1,0.3336,0,23,23,13,1,X,space,,,,,,,,,,,,,
,,,,,,,,,,,,,,,,PUM07K,001,PUM07K,2024-01-15_08h43.46.210,Trial go no go,2020.2.10,Win32,60,,,space,1,0.3245,0,24,24,36,1,X,space,,,,,,,,,,,,,
,,,,,,,,,,,,,,,,PUM07K,001,PUM07K,2024-01-15_08h43.46.210,Trial go no go,2020.2.10,Win32,60,,,space,1,0.3502,0,25,25,28,1,X,space,,,,,,,,,,,,,
,,,,,,,,,,,,,,,,PUM07K,001,PUM07K,2024-01-15_08h43.46.210,Trial go no go,2020.2.10,Win32,60,,,,1,,0,26,26,34,1,N,none,,,,,,,,,,,,,
,,,,,,,,,,,,,,,,PUM07K,001,PUM07K,2024-01-15_08h43.46.210,Trial go no go,2020.2.10,Win32,60,,,space,1,0.2014,0,27,27,20,1,X,space,,,,,,,,,,,,,
,,,,,,,,,,,,,,,,PUM07K,001,PUM07K,2024-01-15_08h43.46.210,Trial go no go,2020.2.10,Win32,60,,,space,1,0.3206,0,28,28,21,1,X,space,,,,,,,,,,,,,
,,,,,,,,,,,,,,,,PUM07K,001,PUM07K,2024-01-15_08h43.46.210,Trial go no go,2020.2.10,Win32,60,,,space,1,0.4235,0,29,29,18,1,X,space,,,,,,,,,,,,,
,,,,,,,,,,,,,,,,PUM07K,001,PUM07K,2024-01-15_08h43.46.210,Trial go no go,2020.2.10,Win32,60,,,space,1,0.3345,0,30,30,0,1,X,space,,,,,,,,,,,,,
,,,,,,,,,,,,,,,,PUM07K,001,PUM07K,2024-01-15_08h43.46.210,Trial go no go,2020.2.10,Win32,60,,,space,1,0.3098,0,31,31,11,1,X,space,,,,,,,,,,,,,
,,,,,,,,,,,,,,,,PUM07K,001,PUM07K,2024-01-15_08h43.46.210,Trial go no go,2020.2.10,Win32,60,,,space,1,0.3181,0,32,32,42,1,X,space,,,,,,,,,,,,,
,,,,,,,,,,,,,,,,PUM07K,001,PUM07K,2024-01-15_08h43.46.210,Trial go no go,2020.2.10,Win32,60,,,space,0,0.3075,0,33,33,9,1,W,none,,,,,,,,,,,,,
,,,,,,,,,,,,,,,,PUM07K,001,PUM07K,2024-01-15_08h43.46.210,Trial go no go,2020.2.10,Win32,60,,,space,1,0.4272,0,34,34,43,1,X,space,,,,,,,,,,,,,
,,,,,,,,,,,,,,,,PUM07K,001,PUM07K,2024-01-15_08h43.46.210,Trial go no go,2020.2.10,Win32,60,,,space,1,0.3223,0,35,35,27,1,X,space,,,,,,,,,,,,,
,,,,,,,,,,,,,,,,PUM07K,001,PUM07K,2024-01-15_08h43.46.210,Trial go no go,2020.2.10,Win32,60,,,space,1,0.317,0,36,36,45,1,X,space,,,,,,,,,,,,,
,,,,,,,,,,,,,,,,PUM07K,001,PUM07K,2024-01-15_08h43.46.210,Trial go no go,2020.2.10,Win32,60,,,space,1,0.2882,0,37,37,15,1,X,space,,,,,,,,,,,,,
,,,,,,,,,,,,,,,,PUM07K,001,PUM07K,2024-01-15_08h43.46.210,Trial go no go,2020.2.10,Win32,60,,,space,1,0.2954,0,38,38,26,1,X,space,,,,,,,,,,,,,
,,,,,,,,,,,,,,,,PUM07K,001,PUM07K,2024-01-15_08h43.46.210,Trial go no go,2020.2.10,Win32,60,,,space,1,0.3182,0,39,39,35,1,X,space,,,,,,,,,,,,,
,,,,,,,,,,,,,,,,PUM07K,001,PUM07K,2024-01-15_08h43.46.210,Trial go no go,2020.2.10,Win32,60,,,space,1,0.3253,0,40,40,31,1,X,space,,,,,,,,,,,,,
,,,,,,,,,,,,,,,,PUM07K,001,PUM07K,2024-01-15_08h43.46.210,Trial go no go,2020.2.10,Win32,60,,,space,0,0.3337,0,41,41,24,1,H,none,,,,,,,,,,,,,
,,,,,,,,,,,,,,,,PUM07K,001,PUM07K,2024-01-15_08h43.46.210,Trial go no go,2020.2.10,Win32,60,,,space,1,0.6913,0,42,42,33,1,X,space,,,,,,,,,,,,,
,,,,,,,,,,,,,,,,PUM07K,001,PUM07K,2024-01-15_08h43.46.210,Trial go no go,2020.2.10,Win32,60,,,,1,,0,43,43,29,1,T,none,,,,,,,,,,,,,
,,,,,,,,,,,,,,,,PUM07K,001,PUM07K,2024-01-15_08h43.46.210,Trial go no go,2020.2.10,Win32,60,,,space,0,0.3213,0,44,44,14,1,Y,none,,,,,,,,,,,,,
,,,,,,,,,,,,,,,,PUM07K,001,PUM07K,2024-01-15_08h43.46.210,Trial go no go,2020.2.10,Win32,60,,,,0,,0,45,45,22,1,X,space,,,,,,,,,,,,,
,,,,,,,,,,,,,,,,PUM07K,001,PUM07K,2024-01-15_08h43.46.210,Trial go no go,2020.2.10,Win32,60,,,space,1,0.2879,0,46,46,8,1,X,space,,,,,,,,,,,,,
,,,,,,,,,,,,,,,,PUM07K,001,PUM07K,2024-01-15_08h43.46.210,Trial go no go,2020.2.10,Win32,60,,,space,1,0.3109,0,47,47,30,1,X,space,,,,,,,,,,,,,
,,,,,,,,,,,,,,,,PUM07K,001,PUM07K,2024-01-15_08h43.46.210,Trial go no go,2020.2.10,Win32,60,,,space,1,0.3345,0,48,48,48,1,X,space,,,,,,,,,,,,,
,,,,,,,,,,,,,,,,PUM07K,001,PUM07K,2024-01-15_08h43.46.210,Trial go no go,2020.2.10,Win32,60,,,,1,,0,49,49,19,1,K,none,,,,,,,,,,,,,
,,,,,,,,,,,,,,,,PUM07K,001,PUM07K,2024-01-15_08h43.46.210,Trial go no go,2020.2.10,Win32,60,,,,,,,,,,,,,z,13.7244,,0,0,0,0,21,1,R,space,,
,,,,,,,,,,,,,,,,PUM07K,001,PUM07K,2024-01-15_08h43.46.210,Trial go no go,2020.2.10,Win32,60,,,,,,,,,,,,,,,,0,0,1,1,35,1,N,space,,
,,,,,,,,,,,,,,,,PUM07K,001,PUM07K,2024-01-15_08h43.46.210,Trial go no go,2020.2.10,Win32,60,,,,,,,,,,,,,,,,0,0,2,2,6,1,I,space,,
,,,,,,,,,,,,,,,,PUM07K,001,PUM07K,2024-01-15_08h43.46.210,Trial go no go,2020.2.10,Win32,60,,,,,,,,,,,,,,,,1,0,3,3,24,1,X,none,,
,,,,,,,,,,,,,,,,PUM07K,001,PUM07K,2024-01-15_08h43.46.210,Trial go no go,2020.2.10,Win32,60,,,,,,,,,,,,,,,,0,0,4,4,15,1,V,space,,
,,,,,,,,,,,,,,,,PUM07K,001,PUM07K,2024-01-15_08h43.46.210,Trial go no go,2020.2.10,Win32,60,,,,,,,,,,,,,,,,0,0,5,5,5,1,Y,space,,
,,,,,,,,,,,,,,,,PUM07K,001,PUM07K,2024-01-15_08h43.46.210,Trial go no go,2020.2.10,Win32,60,,,,,,,,,,,,,,,,0,0,6,6,43,1,I,space,,
,,,,,,,,,,,,,,,,PUM07K,001,PUM07K,2024-01-15_08h43.46.210,Trial go no go,2020.2.10,Win32,60,,,,,,,,,,,,,,,,0,0,7,7,22,1,T,space,,
,,,,,,,,,,,,,,,,PUM07K,001,PUM07K,2024-01-15_08h43.46.210,Trial go no go,2020.2.10,Win32,60,,,,,,,,,,,,,,,,0,0,8,8,3,1,T,space,,
,,,,,,,,,,,,,,,,PUM07K,001,PUM07K,2024-01-15_08h43.46.210,Trial go no go,2020.2.10,Win32,60,,,,,,,,,,,,,,,,0,0,9,9,46,1,F,space,,
,,,,,,,,,,,,,,,,PUM07K,001,PUM07K,2024-01-15_08h43.46.210,Trial go no go,2020.2.10,Win32,60,,,,,,,,,,,,,,,,0,0,10,10,31,1,L,space,,
,,,,,,,,,,,,,,,,PUM07K,001,PUM07K,2024-01-15_08h43.46.210,Trial go no go,2020.2.10,Win32,60,,,,,,,,,,,,,,,,0,0,11,11,2,1,R,space,,
,,,,,,,,,,,,,,,,PUM07K,001,PUM07K,2024-01-15_08h43.46.210,Trial go no go,2020.2.10,Win32,60,,,,,,,,,,,,,,,,1,0,12,12,4,1,X,none,,
,,,,,,,,,,,,,,,,PUM07K,001,PUM07K,2024-01-15_08h43.46.210,Trial go no go,2020.2.10,Win32,60,,,,,,,,,,,,,,,,0,0,13,13,23,1,Y,space,,
,,,,,,,,,,,,,,,,PUM07K,001,PUM07K,2024-01-15_08h43.46.210,Trial go no go,2020.2.10,Win32,60,,,,,,,,,,,,,,,,0,0,14,14,36,1,M,space,,
,,,,,,,,,,,,,,,,PUM07K,001,PUM07K,2024-01-15_08h43.46.210,Trial go no go,2020.2.10,Win32,60,,,,,,,,,,,,,,,,0,0,15,15,27,1,F,space,,
,,,,,,,,,,,,,,,,PUM07K,001,PUM07K,2024-01-15_08h43.46.210,Trial go no go,2020.2.10,Win32,60,,,,,,,,,,,,,,,,0,0,16,16,0,1,W,space,,
,,,,,,,,,,,,,,,,PUM07K,001,PUM07K,2024-01-15_08h43.46.210,Trial go no go,2020.2.10,Win32,60,,,,,,,,,,,,,,,,0,0,17,17,32,1,Z,space,,
,,,,,,,,,,,,,,,,PUM07K,001,PUM07K,2024-01-15_08h43.46.210,Trial go no go,2020.2.10,Win32,60,,,,,,,,,,,,,,,,0,0,18,18,28,1,H,space,,
,,,,,,,,,,,,,,,,PUM07K,001,PUM07K,2024-01-15_08h43.46.210,Trial go no go,2020.2.10,Win32,60,,,,,,,,,,,,,,,,1,0,19,19,9,1,X,none,,
,,,,,,,,,,,,,,,,PUM07K,001,PUM07K,2024-01-15_08h43.46.210,Trial go no go,2020.2.10,Win32,60,,,,,,,,,,,,,,,,1,0,20,20,44,1,X,none,,
,,,,,,,,,,,,,,,,PUM07K,001,PUM07K,2024-01-15_08h43.46.210,Trial go no go,2020.2.10,Win32,60,,,,,,,,,,,,,,,,0,0,21,21,48,1,K,space,,
,,,,,,,,,,,,,,,,PUM07K,001,PUM07K,2024-01-15_08h43.46.210,Trial go no go,2020.2.10,Win32,60,,,,,,,,,,,,,,,,0,0,22,22,10,1,H,space,,
,,,,,,,,,,,,,,,,PUM07K,001,PUM07K,2024-01-15_08h43.46.210,Trial go no go,2020.2.10,Win32,60,,,,,,,,,,,,,,,,0,0,23,23,25,1,I,space,,
,,,,,,,,,,,,,,,,PUM07K,001,PUM07K,2024-01-15_08h43.46.210,Trial go no go,2020.2.10,Win32,60,,,,,,,,,,,,,,,,0,0,24,24,45,1,A,space,,
,,,,,,,,,,,,,,,,PUM07K,001,PUM07K,2024-01-15_08h43.46.210,Trial go no go,2020.2.10,Win32,60,,,,,,,,,,,,,,,,0,0,25,25,41,1,T,space,,
,,,,,,,,,,,,,,,,PUM07K,001,PUM07K,2024-01-15_08h43.46.210,Trial go no go,2020.2.10,Win32,60,,,,,,,,,,,,,,,,0,0,26,26,1,1,E,space,,
,,,,,,,,,,,,,,,,PUM07K,001,PUM07K,2024-01-15_08h43.46.210,Trial go no go,2020.2.10,Win32,60,,,,,,,,,,,,,,,,0,0,27,27,8,1,F,space,,
,,,,,,,,,,,,,,,,PUM07K,001,PUM07K,2024-01-15_08h43.46.210,Trial go no go,2020.2.10,Win32,60,,,,,,,,,,,,,,,,0,0,28,28,33,1,V,space,,
,,,,,,,,,,,,,,,,PUM07K,001,PUM07K,2024-01-15_08h43.46.210,Trial go no go,2020.2.10,Win32,60,,,,,,,,,,,,,,,,0,0,29,29,16,1,N,space,,
,,,,,,,,,,,,,,,,PUM07K,001,PUM07K,2024-01-15_08h43.46.210,Trial go no go,2020.2.10,Win32,60,,,,,,,,,,,,,,,,0,0,30,30,20,1,E,space,,
,,,,,,,,,,,,,,,,PUM07K,001,PUM07K,2024-01-15_08h43.46.210,Trial go no go,2020.2.10,Win32,60,,,,,,,,,,,,,,,,0,0,31,31,47,1,H,space,,
,,,,,,,,,,,,,,,,PUM07K,001,PUM07K,2024-01-15_08h43.46.210,Trial go no go,2020.2.10,Win32,60,,,,,,,,,,,,,,,,0,0,32,32,17,1,M,space,,
,,,,,,,,,,,,,,,,PUM07K,001,PUM07K,2024-01-15_08h43.46.210,Trial go no go,2020.2.10,Win32,60,,,,,,,,,,,,,,,,0,0,33,33,30,1,K,space,,
,,,,,,,,,,,,,,,,PUM07K,001,PUM07K,2024-01-15_08h43.46.210,Trial go no go,2020.2.10,Win32,60,,,,,,,,,,,,,,,,0,0,34,34,26,1,A,space,,
,,,,,,,,,,,,,,,,PUM07K,001,PUM07K,2024-01-15_08h43.46.210,Trial go no go,2020.2.10,Win32,60,,,,,,,,,,,,,,,,1,0,35,35,14,1,X,none,,
,,,,,,,,,,,,,,,,PUM07K,001,PUM07K,2024-01-15_08h43.46.210,Trial go no go,2020.2.10,Win32,60,,,,,,,,,,,,,,,,0,0,36,36,42,1,Y,space,,
,,,,,,,,,,,,,,,,PUM07K,001,PUM07K,2024-01-15_08h43.46.210,Trial go no go,2020.2.10,Win32,60,,,,,,,,,,,,,,,,1,0,37,37,39,1,X,none,,
,,,,,,,,,,,,,,,,PUM07K,001,PUM07K,2024-01-15_08h43.46.210,Trial go no go,2020.2.10,Win32,60,,,,,,,,,,,,,,,,0,0,38,38,37,1,W,space,,
,,,,,,,,,,,,,,,,PUM07K,001,PUM07K,2024-01-15_08h43.46.210,Trial go no go,2020.2.10,Win32,60,,,,,,,,,,,,,,,,1,0,39,39,49,1,X,none,,
,,,,,,,,,,,,,,,,PUM07K,001,PUM07K,2024-01-15_08h43.46.210,Trial go no go,2020.2.10,Win32,60,,,,,,,,,,,,,,,,0,0,40,40,38,1,E,space,,
,,,,,,,,,,,,,,,,PUM07K,001,PUM07K,2024-01-15_08h43.46.210,Trial go no go,2020.2.10,Win32,60,,,,,,,,,,,,,,,,0,0,41,41,12,1,L,space,,
,,,,,,,,,,,,,,,,PUM07K,001,PUM07K,2024-01-15_08h43.46.210,Trial go no go,2020.2.10,Win32,60,,,,,,,,,,,,,,,,1,0,42,42,19,1,X,none,,
,,,,,,,,,,,,,,,,PUM07K,001,PUM07K,2024-01-15_08h43.46.210,Trial go no go,2020.2.10,Win32,60,,,,,,,,,,,,,,,,1,0,43,43,29,1,X,none,,
,,,,,,,,,,,,,,,,PUM07K,001,PUM07K,2024-01-15_08h43.46.210,Trial go no go,2020.2.10,Win32,60,,,,,,,,,,,,,,,,0,0,44,44,40,1,R,space,,
,,,,,,,,,,,,,,,,PUM07K,001,PUM07K,2024-01-15_08h43.46.210,Trial go no go,2020.2.10,Win32,60,,,,,,,,,,,,,,,,1,0,45,45,34,1,X,none,,
,,,,,,,,,,,,,,,,PUM07K,001,PUM07K,2024-01-15_08h43.46.210,Trial go no go,2020.2.10,Win32,60,,,,,,,,,,,,,,,,0,0,46,46,11,1,K,space,,
,,,,,,,,,,,,,,,,PUM07K,001,PUM07K,2024-01-15_08h43.46.210,Trial go no go,2020.2.10,Win32,60,,,,,,,,,,,,,,,,0,0,47,47,7,1,A,space,,
,,,,,,,,,,,,,,,,PUM07K,001,PUM07K,2024-01-15_08h43.46.210,Trial go no go,2020.2.10,Win32,60,,,,,,,,,,,,,,,,0,0,48,48,18,1,W,space,,
,,,,,,,,,,,,,,,,PUM07K,001,PUM07K,2024-01-15_08h43.46.210,Trial go no go,2020.2.10,Win32,60,,,,,,,,,,,,,,,,0,0,49,49,13,1,Z,space,,
,,,,,,,,,,,,,,,,PUM07K,001,PUM07K,2024-01-15_08h43.46.210,Trial go no go,2020.2.10,Win32,60,,,,,,,,,,,,,,,,,,,,,,,,space,20.6051
