resp_Welcome.keys,resp_Welcome.rt,resp_Instr_Intro.keys,resp_Instr_Intro.rt,resp_Instr_Prac1.keys,resp_Instr_Prac1.rt,resp_trial_Prac1.keys,resp_trial_Prac1.corr,resp_trial_Prac1.rt,prac_trials.thisRepN,prac_trials.thisTrialN,prac_trials.thisN,prac_trials.thisIndex,prac_trials.ran,stimulus_prac1,corrAns_prac1,participant,session,indywidualny kod,date,expName,psychopyVersion,OS,frameRate,resp_Instr_Test1.keys,resp_Instr_Test1.rt,resp_trial_Test1.keys,resp_trial_Test1.corr,resp_trial_Test1.rt,test1trial.thisRepN,test1trial.thisTrialN,test1trial.thisN,test1trial.thisIndex,test1trial.ran,stimulus_test1,corrAns_test1,resp_Instr_Test2.keys,resp_Instr_Test2.rt,key_resp_Test2.keys,key_resp_Test2.corr,test2trial.thisRepN,test2trial.thisTrialN,test2trial.thisN,test2trial.thisIndex,test2trial.ran,stimulus_test2,corrAns_test2,key_resp_Test2.rt,resp_theEnd.keys,resp_theEnd.rt
space,3.1294,space,21.8372,space,15.2878,space,1,0.6182,0,0,0,8,1,X,space,PUM19B,001,PUM19B,2023-11-17_08h50.55.358,Trial go no go,2020.2.10,Win32,60,,,,,,,,,,,,,,,,,,,,,,,,,,
,,,,,,space,1,0.4041,0,1,1,1,1,X,space,PUM19B,001,PUM19B,2023-11-17_08h50.55.358,Trial go no go,2020.2.10,Win32,60,,,,,,,,,,,,,,,,,,,,,,,,,,
,,,,,,space,1,0.4163,0,2,2,7,1,X,space,PUM19B,001,PUM19B,2023-11-17_08h50.55.358,Trial go no go,2020.2.10,Win32,60,,,,,,,,,,,,,,,,,,,,,,,,,,
,,,,,,space,0,0.4244,0,3,3,4,1,W,none,PUM19B,001,PUM19B,2023-11-17_08h50.55.358,Trial go no go,2020.2.10,Win32,60,,,,,,,,,,,,,,,,,,,,,,,,,,
,,,,,,space,1,0.7148,0,4,4,2,1,X,space,PUM19B,001,PUM19B,2023-11-17_08h50.55.358,Trial go no go,2020.2.10,Win32,60,,,,,,,,,,,,,,,,,,,,,,,,,,
,,,,,,,1,,0,5,5,9,1,V,none,PUM19B,001,PUM19B,2023-11-17_08h50.55.358,Trial go no go,2020.2.10,Win32,60,,,,,,,,,,,,,,,,,,,,,,,,,,
,,,,,,space,1,0.4367,0,6,6,13,1,X,space,PUM19B,001,PUM19B,2023-11-17_08h50.55.358,Trial go no go,2020.2.10,Win32,60,,,,,,,,,,,,,,,,,,,,,,,,,,
,,,,,,space,1,0.4037,0,7,7,10,1,X,space,PUM19B,001,PUM19B,2023-11-17_08h50.55.358,Trial go no go,2020.2.10,Win32,60,,,,,,,,,,,,,,,,,,,,,,,,,,
,,,,,,space,1,0.425,0,8,8,3,1,X,space,PUM19B,001,PUM19B,2023-11-17_08h50.55.358,Trial go no go,2020.2.10,Win32,60,,,,,,,,,,,,,,,,,,,,,,,,,,
,,,,,,space,1,0.3904,0,9,9,0,1,X,space,PUM19B,001,PUM19B,2023-11-17_08h50.55.358,Trial go no go,2020.2.10,Win32,60,,,,,,,,,,,,,,,,,,,,,,,,,,
,,,,,,space,1,0.3906,0,10,10,6,1,X,space,PUM19B,001,PUM19B,2023-11-17_08h50.55.358,Trial go no go,2020.2.10,Win32,60,,,,,,,,,,,,,,,,,,,,,,,,,,
,,,,,,space,1,0.3538,0,11,11,12,1,X,space,PUM19B,001,PUM19B,2023-11-17_08h50.55.358,Trial go no go,2020.2.10,Win32,60,,,,,,,,,,,,,,,,,,,,,,,,,,
,,,,,,space,1,0.4669,0,12,12,11,1,X,space,PUM19B,001,PUM19B,2023-11-17_08h50.55.358,Trial go no go,2020.2.10,Win32,60,,,,,,,,,,,,,,,,,,,,,,,,,,
,,,,,,,1,,0,13,13,14,1,K,none,PUM19B,001,PUM19B,2023-11-17_08h50.55.358,Trial go no go,2020.2.10,Win32,60,,,,,,,,,,,,,,,,,,,,,,,,,,
,,,,,,space,1,0.4041,0,14,14,5,1,X,space,PUM19B,001,PUM19B,2023-11-17_08h50.55.358,Trial go no go,2020.2.10,Win32,60,,,,,,,,,,,,,,,,,,,,,,,,,,
,,,,,,,,,,,,,,,,PUM19B,001,PUM19B,2023-11-17_08h50.55.358,Trial go no go,2020.2.10,Win32,60,space,5.9593,space,1,0.4196,0,0,0,26,1,X,space,,,,,,,,,,,,,,
,,,,,,,,,,,,,,,,PUM19B,001,PUM19B,2023-11-17_08h50.55.358,Trial go no go,2020.2.10,Win32,60,,,space,1,0.4513,0,1,1,33,1,X,space,,,,,,,,,,,,,,
,,,,,,,,,,,,,,,,PUM19B,001,PUM19B,2023-11-17_08h50.55.358,Trial go no go,2020.2.10,Win32,60,,,space,1,0.2296,0,2,2,31,1,X,space,,,,,,,,,,,,,,
,,,,,,,,,,,,,,,,PUM19B,001,PUM19B,2023-11-17_08h50.55.358,Trial go no go,2020.2.10,Win32,60,,,space,1,0.381,0,3,3,35,1,X,space,,,,,,,,,,,,,,
,,,,,,,,,,,,,,,,PUM19B,001,PUM19B,2023-11-17_08h50.55.358,Trial go no go,2020.2.10,Win32,60,,,,1,,0,4,4,49,1,E,none,,,,,,,,,,,,,,
,,,,,,,,,,,,,,,,PUM19B,001,PUM19B,2023-11-17_08h50.55.358,Trial go no go,2020.2.10,Win32,60,,,,1,,0,5,5,39,1,M,none,,,,,,,,,,,,,,
,,,,,,,,,,,,,,,,PUM19B,001,PUM19B,2023-11-17_08h50.55.358,Trial go no go,2020.2.10,Win32,60,,,space,1,0.2643,0,6,6,46,1,X,space,,,,,,,,,,,,,,
,,,,,,,,,,,,,,,,PUM19B,001,PUM19B,2023-11-17_08h50.55.358,Trial go no go,2020.2.10,Win32,60,,,space,1,0.4188,0,7,7,40,1,X,space,,,,,,,,,,,,,,
,,,,,,,,,,,,,,,,PUM19B,001,PUM19B,2023-11-17_08h50.55.358,Trial go no go,2020.2.10,Win32,60,,,space,1,0.2849,0,8,8,37,1,X,space,,,,,,,,,,,,,,
,,,,,,,,,,,,,,,,PUM19B,001,PUM19B,2023-11-17_08h50.55.358,Trial go no go,2020.2.10,Win32,60,,,,1,,0,9,9,29,1,T,none,,,,,,,,,,,,,,
,,,,,,,,,,,,,,,,PUM19B,001,PUM19B,2023-11-17_08h50.55.358,Trial go no go,2020.2.10,Win32,60,,,,1,,0,10,10,14,1,Y,none,,,,,,,,,,,,,,
,,,,,,,,,,,,,,,,PUM19B,001,PUM19B,2023-11-17_08h50.55.358,Trial go no go,2020.2.10,Win32,60,,,,1,,0,11,11,24,1,H,none,,,,,,,,,,,,,,
,,,,,,,,,,,,,,,,PUM19B,001,PUM19B,2023-11-17_08h50.55.358,Trial go no go,2020.2.10,Win32,60,,,space,1,0.3059,0,12,12,10,1,X,space,,,,,,,,,,,,,,
,,,,,,,,,,,,,,,,PUM19B,001,PUM19B,2023-11-17_08h50.55.358,Trial go no go,2020.2.10,Win32,60,,,,0,,0,13,13,3,1,X,space,,,,,,,,,,,,,,
,,,,,,,,,,,,,,,,PUM19B,001,PUM19B,2023-11-17_08h50.55.358,Trial go no go,2020.2.10,Win32,60,,,space,1,0.2112,0,14,14,32,1,X,space,,,,,,,,,,,,,,
,,,,,,,,,,,,,,,,PUM19B,001,PUM19B,2023-11-17_08h50.55.358,Trial go no go,2020.2.10,Win32,60,,,space,1,0.2582,0,15,15,7,1,X,space,,,,,,,,,,,,,,
,,,,,,,,,,,,,,,,PUM19B,001,PUM19B,2023-11-17_08h50.55.358,Trial go no go,2020.2.10,Win32,60,,,space,1,0.2812,0,16,16,23,1,X,space,,,,,,,,,,,,,,
,,,,,,,,,,,,,,,,PUM19B,001,PUM19B,2023-11-17_08h50.55.358,Trial go no go,2020.2.10,Win32,60,,,space,1,0.2736,0,17,17,22,1,X,space,,,,,,,,,,,,,,
,,,,,,,,,,,,,,,,PUM19B,001,PUM19B,2023-11-17_08h50.55.358,Trial go no go,2020.2.10,Win32,60,,,space,1,0.2454,0,18,18,15,1,X,space,,,,,,,,,,,,,,
,,,,,,,,,,,,,,,,PUM19B,001,PUM19B,2023-11-17_08h50.55.358,Trial go no go,2020.2.10,Win32,60,,,space,1,0.2162,0,19,19,13,1,X,space,,,,,,,,,,,,,,
,,,,,,,,,,,,,,,,PUM19B,001,PUM19B,2023-11-17_08h50.55.358,Trial go no go,2020.2.10,Win32,60,,,space,1,0.2326,0,20,20,12,1,X,space,,,,,,,,,,,,,,
,,,,,,,,,,,,,,,,PUM19B,001,PUM19B,2023-11-17_08h50.55.358,Trial go no go,2020.2.10,Win32,60,,,space,1,0.2364,0,21,21,25,1,X,space,,,,,,,,,,,,,,
,,,,,,,,,,,,,,,,PUM19B,001,PUM19B,2023-11-17_08h50.55.358,Trial go no go,2020.2.10,Win32,60,,,space,1,0.2979,0,22,22,28,1,X,space,,,,,,,,,,,,,,
,,,,,,,,,,,,,,,,PUM19B,001,PUM19B,2023-11-17_08h50.55.358,Trial go no go,2020.2.10,Win32,60,,,space,1,0.2145,0,23,23,11,1,X,space,,,,,,,,,,,,,,
,,,,,,,,,,,,,,,,PUM19B,001,PUM19B,2023-11-17_08h50.55.358,Trial go no go,2020.2.10,Win32,60,,,space,0,0.1998,0,24,24,44,1,F,none,,,,,,,,,,,,,,
,,,,,,,,,,,,,,,,PUM19B,001,PUM19B,2023-11-17_08h50.55.358,Trial go no go,2020.2.10,Win32,60,,,space,1,0.4291,0,25,25,1,1,X,space,,,,,,,,,,,,,,
,,,,,,,,,,,,,,,,PUM19B,001,PUM19B,2023-11-17_08h50.55.358,Trial go no go,2020.2.10,Win32,60,,,space,1,0.3413,0,26,26,20,1,X,space,,,,,,,,,,,,,,
,,,,,,,,,,,,,,,,PUM19B,001,PUM19B,2023-11-17_08h50.55.358,Trial go no go,2020.2.10,Win32,60,,,space,1,0.2298,0,27,27,5,1,X,space,,,,,,,,,,,,,,
,,,,,,,,,,,,,,,,PUM19B,001,PUM19B,2023-11-17_08h50.55.358,Trial go no go,2020.2.10,Win32,60,,,,1,,0,28,28,34,1,N,none,,,,,,,,,,,,,,
,,,,,,,,,,,,,,,,PUM19B,001,PUM19B,2023-11-17_08h50.55.358,Trial go no go,2020.2.10,Win32,60,,,,1,,0,29,29,9,1,W,none,,,,,,,,,,,,,,
,,,,,,,,,,,,,,,,PUM19B,001,PUM19B,2023-11-17_08h50.55.358,Trial go no go,2020.2.10,Win32,60,,,,1,,0,30,30,4,1,V,none,,,,,,,,,,,,,,
,,,,,,,,,,,,,,,,PUM19B,001,PUM19B,2023-11-17_08h50.55.358,Trial go no go,2020.2.10,Win32,60,,,,0,,0,31,31,47,1,X,space,,,,,,,,,,,,,,
,,,,,,,,,,,,,,,,PUM19B,001,PUM19B,2023-11-17_08h50.55.358,Trial go no go,2020.2.10,Win32,60,,,space,1,0.3071,0,32,32,18,1,X,space,,,,,,,,,,,,,,
,,,,,,,,,,,,,,,,PUM19B,001,PUM19B,2023-11-17_08h50.55.358,Trial go no go,2020.2.10,Win32,60,,,space,1,0.2295,0,33,33,48,1,X,space,,,,,,,,,,,,,,
,,,,,,,,,,,,,,,,PUM19B,001,PUM19B,2023-11-17_08h50.55.358,Trial go no go,2020.2.10,Win32,60,,,space,1,0.2229,0,34,34,2,1,X,space,,,,,,,,,,,,,,
,,,,,,,,,,,,,,,,PUM19B,001,PUM19B,2023-11-17_08h50.55.358,Trial go no go,2020.2.10,Win32,60,,,space,1,0.253,0,35,35,41,1,X,space,,,,,,,,,,,,,,
,,,,,,,,,,,,,,,,PUM19B,001,PUM19B,2023-11-17_08h50.55.358,Trial go no go,2020.2.10,Win32,60,,,space,1,0.2225,0,36,36,0,1,X,space,,,,,,,,,,,,,,
,,,,,,,,,,,,,,,,PUM19B,001,PUM19B,2023-11-17_08h50.55.358,Trial go no go,2020.2.10,Win32,60,,,space,1,0.2297,0,37,37,27,1,X,space,,,,,,,,,,,,,,
,,,,,,,,,,,,,,,,PUM19B,001,PUM19B,2023-11-17_08h50.55.358,Trial go no go,2020.2.10,Win32,60,,,space,1,0.2458,0,38,38,42,1,X,space,,,,,,,,,,,,,,
,,,,,,,,,,,,,,,,PUM19B,001,PUM19B,2023-11-17_08h50.55.358,Trial go no go,2020.2.10,Win32,60,,,space,1,0.2312,0,39,39,6,1,X,space,,,,,,,,,,,,,,
,,,,,,,,,,,,,,,,PUM19B,001,PUM19B,2023-11-17_08h50.55.358,Trial go no go,2020.2.10,Win32,60,,,space,1,0.199,0,40,40,38,1,X,space,,,,,,,,,,,,,,
,,,,,,,,,,,,,,,,PUM19B,001,PUM19B,2023-11-17_08h50.55.358,Trial go no go,2020.2.10,Win32,60,,,space,1,0.2112,0,41,41,36,1,X,space,,,,,,,,,,,,,,
,,,,,,,,,,,,,,,,PUM19B,001,PUM19B,2023-11-17_08h50.55.358,Trial go no go,2020.2.10,Win32,60,,,space,1,0.1981,0,42,42,43,1,X,space,,,,,,,,,,,,,,
,,,,,,,,,,,,,,,,PUM19B,001,PUM19B,2023-11-17_08h50.55.358,Trial go no go,2020.2.10,Win32,60,,,space,1,0.2393,0,43,43,30,1,X,space,,,,,,,,,,,,,,
,,,,,,,,,,,,,,,,PUM19B,001,PUM19B,2023-11-17_08h50.55.358,Trial go no go,2020.2.10,Win32,60,,,space,1,0.1973,0,44,44,16,1,X,space,,,,,,,,,,,,,,
,,,,,,,,,,,,,,,,PUM19B,001,PUM19B,2023-11-17_08h50.55.358,Trial go no go,2020.2.10,Win32,60,,,space,0,0.1994,0,45,45,19,1,K,none,,,,,,,,,,,,,,
,,,,,,,,,,,,,,,,PUM19B,001,PUM19B,2023-11-17_08h50.55.358,Trial go no go,2020.2.10,Win32,60,,,,0,,0,46,46,17,1,X,space,,,,,,,,,,,,,,
,,,,,,,,,,,,,,,,PUM19B,001,PUM19B,2023-11-17_08h50.55.358,Trial go no go,2020.2.10,Win32,60,,,space,1,0.3348,0,47,47,8,1,X,space,,,,,,,,,,,,,,
,,,,,,,,,,,,,,,,PUM19B,001,PUM19B,2023-11-17_08h50.55.358,Trial go no go,2020.2.10,Win32,60,,,space,1,0.2043,0,48,48,21,1,X,space,,,,,,,,,,,,,,
,,,,,,,,,,,,,,,,PUM19B,001,PUM19B,2023-11-17_08h50.55.358,Trial go no go,2020.2.10,Win32,60,,,space,1,0.2233,0,49,49,45,1,X,space,,,,,,,,,,,,,,
,,,,,,,,,,,,,,,,PUM19B,001,PUM19B,2023-11-17_08h50.55.358,Trial go no go,2020.2.10,Win32,60,,,,,,,,,,,,,z,12.9727,,1,0,0,0,34,1,X,none,,,
,,,,,,,,,,,,,,,,PUM19B,001,PUM19B,2023-11-17_08h50.55.358,Trial go no go,2020.2.10,Win32,60,,,,,,,,,,,,,,,space,1,0,1,1,45,1,A,space,0.447,,
,,,,,,,,,,,,,,,,PUM19B,001,PUM19B,2023-11-17_08h50.55.358,Trial go no go,2020.2.10,Win32,60,,,,,,,,,,,,,,,space,1,0,2,2,38,1,E,space,0.3687,,
,,,,,,,,,,,,,,,,PUM19B,001,PUM19B,2023-11-17_08h50.55.358,Trial go no go,2020.2.10,Win32,60,,,,,,,,,,,,,,,space,1,0,3,3,10,1,H,space,0.2403,,
,,,,,,,,,,,,,,,,PUM19B,001,PUM19B,2023-11-17_08h50.55.358,Trial go no go,2020.2.10,Win32,60,,,,,,,,,,,,,,,space,0,0,4,4,39,1,X,none,0.2093,,
,,,,,,,,,,,,,,,,PUM19B,001,PUM19B,2023-11-17_08h50.55.358,Trial go no go,2020.2.10,Win32,60,,,,,,,,,,,,,,,space,1,0,5,5,20,1,E,space,0.3298,,
,,,,,,,,,,,,,,,,PUM19B,001,PUM19B,2023-11-17_08h50.55.358,Trial go no go,2020.2.10,Win32,60,,,,,,,,,,,,,,,space,1,0,6,6,3,1,T,space,0.2742,,
,,,,,,,,,,,,,,,,PUM19B,001,PUM19B,2023-11-17_08h50.55.358,Trial go no go,2020.2.10,Win32,60,,,,,,,,,,,,,,,space,1,0,7,7,42,1,Y,space,0.4351,,
,,,,,,,,,,,,,,,,PUM19B,001,PUM19B,2023-11-17_08h50.55.358,Trial go no go,2020.2.10,Win32,60,,,,,,,,,,,,,,,,1,0,8,8,24,1,X,none,,,
,,,,,,,,,,,,,,,,PUM19B,001,PUM19B,2023-11-17_08h50.55.358,Trial go no go,2020.2.10,Win32,60,,,,,,,,,,,,,,,space,1,0,9,9,43,1,I,space,0.3586,,
,,,,,,,,,,,,,,,,PUM19B,001,PUM19B,2023-11-17_08h50.55.358,Trial go no go,2020.2.10,Win32,60,,,,,,,,,,,,,,,space,1,0,10,10,12,1,L,space,0.3144,,
,,,,,,,,,,,,,,,,PUM19B,001,PUM19B,2023-11-17_08h50.55.358,Trial go no go,2020.2.10,Win32,60,,,,,,,,,,,,,,,,1,0,11,11,19,1,X,none,,,
,,,,,,,,,,,,,,,,PUM19B,001,PUM19B,2023-11-17_08h50.55.358,Trial go no go,2020.2.10,Win32,60,,,,,,,,,,,,,,,space,1,0,12,12,8,1,F,space,0.3349,,
,,,,,,,,,,,,,,,,PUM19B,001,PUM19B,2023-11-17_08h50.55.358,Trial go no go,2020.2.10,Win32,60,,,,,,,,,,,,,,,,1,0,13,13,9,1,X,none,,,
,,,,,,,,,,,,,,,,PUM19B,001,PUM19B,2023-11-17_08h50.55.358,Trial go no go,2020.2.10,Win32,60,,,,,,,,,,,,,,,space,1,0,14,14,36,1,M,space,0.3293,,
,,,,,,,,,,,,,,,,PUM19B,001,PUM19B,2023-11-17_08h50.55.358,Trial go no go,2020.2.10,Win32,60,,,,,,,,,,,,,,,space,1,0,15,15,31,1,L,space,0.3718,,
,,,,,,,,,,,,,,,,PUM19B,001,PUM19B,2023-11-17_08h50.55.358,Trial go no go,2020.2.10,Win32,60,,,,,,,,,,,,,,,space,1,0,16,16,2,1,R,space,0.2851,,
,,,,,,,,,,,,,,,,PUM19B,001,PUM19B,2023-11-17_08h50.55.358,Trial go no go,2020.2.10,Win32,60,,,,,,,,,,,,,,,space,1,0,17,17,1,1,E,space,0.3313,,
,,,,,,,,,,,,,,,,PUM19B,001,PUM19B,2023-11-17_08h50.55.358,Trial go no go,2020.2.10,Win32,60,,,,,,,,,,,,,,,space,1,0,18,18,22,1,T,space,0.3407,,
,,,,,,,,,,,,,,,,PUM19B,001,PUM19B,2023-11-17_08h50.55.358,Trial go no go,2020.2.10,Win32,60,,,,,,,,,,,,,,,space,0,0,19,19,44,1,X,none,0.2449,,
,,,,,,,,,,,,,,,,PUM19B,001,PUM19B,2023-11-17_08h50.55.358,Trial go no go,2020.2.10,Win32,60,,,,,,,,,,,,,,,space,1,0,20,20,13,1,Z,space,0.3577,,
,,,,,,,,,,,,,,,,PUM19B,001,PUM19B,2023-11-17_08h50.55.358,Trial go no go,2020.2.10,Win32,60,,,,,,,,,,,,,,,,0,0,21,21,23,1,Y,space,,,
,,,,,,,,,,,,,,,,PUM19B,001,PUM19B,2023-11-17_08h50.55.358,Trial go no go,2020.2.10,Win32,60,,,,,,,,,,,,,,,space,1,0,22,22,40,1,R,space,0.3019,,
,,,,,,,,,,,,,,,,PUM19B,001,PUM19B,2023-11-17_08h50.55.358,Trial go no go,2020.2.10,Win32,60,,,,,,,,,,,,,,,space,1,0,23,23,21,1,R,space,0.2239,,
,,,,,,,,,,,,,,,,PUM19B,001,PUM19B,2023-11-17_08h50.55.358,Trial go no go,2020.2.10,Win32,60,,,,,,,,,,,,,,,space,1,0,24,24,27,1,F,space,0.2863,,
,,,,,,,,,,,,,,,,PUM19B,001,PUM19B,2023-11-17_08h50.55.358,Trial go no go,2020.2.10,Win32,60,,,,,,,,,,,,,,,space,1,0,25,25,46,1,F,space,0.2511,,
,,,,,,,,,,,,,,,,PUM19B,001,PUM19B,2023-11-17_08h50.55.358,Trial go no go,2020.2.10,Win32,60,,,,,,,,,,,,,,,space,1,0,26,26,41,1,T,space,0.313,,
,,,,,,,,,,,,,,,,PUM19B,001,PUM19B,2023-11-17_08h50.55.358,Trial go no go,2020.2.10,Win32,60,,,,,,,,,,,,,,,space,1,0,27,27,15,1,V,space,0.2857,,
,,,,,,,,,,,,,,,,PUM19B,001,PUM19B,2023-11-17_08h50.55.358,Trial go no go,2020.2.10,Win32,60,,,,,,,,,,,,,,,space,1,0,28,28,48,1,K,space,0.2246,,
,,,,,,,,,,,,,,,,PUM19B,001,PUM19B,2023-11-17_08h50.55.358,Trial go no go,2020.2.10,Win32,60,,,,,,,,,,,,,,,space,1,0,29,29,7,1,A,space,0.2653,,
,,,,,,,,,,,,,,,,PUM19B,001,PUM19B,2023-11-17_08h50.55.358,Trial go no go,2020.2.10,Win32,60,,,,,,,,,,,,,,,space,0,0,30,30,14,1,X,none,0.2746,,
,,,,,,,,,,,,,,,,PUM19B,001,PUM19B,2023-11-17_08h50.55.358,Trial go no go,2020.2.10,Win32,60,,,,,,,,,,,,,,,space,1,0,31,31,26,1,A,space,0.3976,,
,,,,,,,,,,,,,,,,PUM19B,001,PUM19B,2023-11-17_08h50.55.358,Trial go no go,2020.2.10,Win32,60,,,,,,,,,,,,,,,space,1,0,32,32,35,1,N,space,0.3618,,
,,,,,,,,,,,,,,,,PUM19B,001,PUM19B,2023-11-17_08h50.55.358,Trial go no go,2020.2.10,Win32,60,,,,,,,,,,,,,,,space,1,0,33,33,11,1,K,space,0.2788,,
,,,,,,,,,,,,,,,,PUM19B,001,PUM19B,2023-11-17_08h50.55.358,Trial go no go,2020.2.10,Win32,60,,,,,,,,,,,,,,,space,1,0,34,34,37,1,W,space,0.3061,,
,,,,,,,,,,,,,,,,PUM19B,001,PUM19B,2023-11-17_08h50.55.358,Trial go no go,2020.2.10,Win32,60,,,,,,,,,,,,,,,,1,0,35,35,29,1,X,none,,,
,,,,,,,,,,,,,,,,PUM19B,001,PUM19B,2023-11-17_08h50.55.358,Trial go no go,2020.2.10,Win32,60,,,,,,,,,,,,,,,space,1,0,36,36,6,1,I,space,0.3638,,
,,,,,,,,,,,,,,,,PUM19B,001,PUM19B,2023-11-17_08h50.55.358,Trial go no go,2020.2.10,Win32,60,,,,,,,,,,,,,,,space,1,0,37,37,16,1,N,space,0.3006,,
,,,,,,,,,,,,,,,,PUM19B,001,PUM19B,2023-11-17_08h50.55.358,Trial go no go,2020.2.10,Win32,60,,,,,,,,,,,,,,,,0,0,38,38,33,1,V,space,,,
,,,,,,,,,,,,,,,,PUM19B,001,PUM19B,2023-11-17_08h50.55.358,Trial go no go,2020.2.10,Win32,60,,,,,,,,,,,,,,,space,1,0,39,39,30,1,K,space,0.2102,,
,,,,,,,,,,,,,,,,PUM19B,001,PUM19B,2023-11-17_08h50.55.358,Trial go no go,2020.2.10,Win32,60,,,,,,,,,,,,,,,space,0,0,40,40,49,1,X,none,0.2874,,
,,,,,,,,,,,,,,,,PUM19B,001,PUM19B,2023-11-17_08h50.55.358,Trial go no go,2020.2.10,Win32,60,,,,,,,,,,,,,,,space,1,0,41,41,47,1,H,space,0.3617,,
,,,,,,,,,,,,,,,,PUM19B,001,PUM19B,2023-11-17_08h50.55.358,Trial go no go,2020.2.10,Win32,60,,,,,,,,,,,,,,,space,1,0,42,42,28,1,H,space,0.2313,,
,,,,,,,,,,,,,,,,PUM19B,001,PUM19B,2023-11-17_08h50.55.358,Trial go no go,2020.2.10,Win32,60,,,,,,,,,,,,,,,space,1,0,43,43,17,1,M,space,0.3848,,
,,,,,,,,,,,,,,,,PUM19B,001,PUM19B,2023-11-17_08h50.55.358,Trial go no go,2020.2.10,Win32,60,,,,,,,,,,,,,,,space,1,0,44,44,32,1,Z,space,0.292,,
,,,,,,,,,,,,,,,,PUM19B,001,PUM19B,2023-11-17_08h50.55.358,Trial go no go,2020.2.10,Win32,60,,,,,,,,,,,,,,,space,1,0,45,45,5,1,Y,space,0.3641,,
,,,,,,,,,,,,,,,,PUM19B,001,PUM19B,2023-11-17_08h50.55.358,Trial go no go,2020.2.10,Win32,60,,,,,,,,,,,,,,,space,1,0,46,46,25,1,I,space,0.3717,,
,,,,,,,,,,,,,,,,PUM19B,001,PUM19B,2023-11-17_08h50.55.358,Trial go no go,2020.2.10,Win32,60,,,,,,,,,,,,,,,space,1,0,47,47,18,1,W,space,0.3085,,
,,,,,,,,,,,,,,,,PUM19B,001,PUM19B,2023-11-17_08h50.55.358,Trial go no go,2020.2.10,Win32,60,,,,,,,,,,,,,,,,1,0,48,48,4,1,X,none,,,
,,,,,,,,,,,,,,,,PUM19B,001,PUM19B,2023-11-17_08h50.55.358,Trial go no go,2020.2.10,Win32,60,,,,,,,,,,,,,,,space,1,0,49,49,0,1,W,space,0.4446,,
,,,,,,,,,,,,,,,,PUM19B,001,PUM19B,2023-11-17_08h50.55.358,Trial go no go,2020.2.10,Win32,60,,,,,,,,,,,,,,,,,,,,,,,,,space,20.9807
