resp_Welcome.keys,resp_Welcome.rt,resp_Instr_Intro.keys,resp_Instr_Intro.rt,resp_Instr_Prac1.keys,resp_Instr_Prac1.rt,resp_trial_Prac1.keys,resp_trial_Prac1.corr,prac_trials.thisRepN,prac_trials.thisTrialN,prac_trials.thisN,prac_trials.thisIndex,prac_trials.ran,stimulus_prac1,corrAns_prac1,participant,session,indywidualny kod,date,expName,psychopyVersion,OS,frameRate,resp_trial_Prac1.rt,resp_Instr_Test1.keys,resp_Instr_Test1.rt,resp_trial_Test1.keys,resp_trial_Test1.corr,resp_trial_Test1.rt,test1trial.thisRepN,test1trial.thisTrialN,test1trial.thisN,test1trial.thisIndex,test1trial.ran,stimulus_test1,corrAns_test1,resp_Instr_Test2.keys,resp_Instr_Test2.rt,key_resp_Test2.keys,key_resp_Test2.corr,test2trial.thisRepN,test2trial.thisTrialN,test2trial.thisN,test2trial.thisIndex,test2trial.ran,stimulus_test2,corrAns_test2,key_resp_Test2.rt,resp_theEnd.keys,resp_theEnd.rt
space,14.9378,space,19.0741,space,16.6577,,0,0,0,0,10,1,X,space,PUM11K,001,PUM11K,2024-02-26_07h59.47.316,Trial go no go,2020.2.10,Win32,60,,,,,,,,,,,,,,,,,,,,,,,,,,,
,,,,,,,1,0,1,1,4,1,W,none,PUM11K,001,PUM11K,2024-02-26_07h59.47.316,Trial go no go,2020.2.10,Win32,60,,,,,,,,,,,,,,,,,,,,,,,,,,,
,,,,,,space,1,0,2,2,0,1,X,space,PUM11K,001,PUM11K,2024-02-26_07h59.47.316,Trial go no go,2020.2.10,Win32,60,0.451,,,,,,,,,,,,,,,,,,,,,,,,,,
,,,,,,space,1,0,3,3,2,1,X,space,PUM11K,001,PUM11K,2024-02-26_07h59.47.316,Trial go no go,2020.2.10,Win32,60,0.4626,,,,,,,,,,,,,,,,,,,,,,,,,,
,,,,,,space,1,0,4,4,12,1,X,space,PUM11K,001,PUM11K,2024-02-26_07h59.47.316,Trial go no go,2020.2.10,Win32,60,0.5322,,,,,,,,,,,,,,,,,,,,,,,,,,
,,,,,,space,1,0,5,5,5,1,X,space,PUM11K,001,PUM11K,2024-02-26_07h59.47.316,Trial go no go,2020.2.10,Win32,60,0.4604,,,,,,,,,,,,,,,,,,,,,,,,,,
,,,,,,space,1,0,6,6,11,1,X,space,PUM11K,001,PUM11K,2024-02-26_07h59.47.316,Trial go no go,2020.2.10,Win32,60,0.4944,,,,,,,,,,,,,,,,,,,,,,,,,,
,,,,,,space,1,0,7,7,8,1,X,space,PUM11K,001,PUM11K,2024-02-26_07h59.47.316,Trial go no go,2020.2.10,Win32,60,0.3504,,,,,,,,,,,,,,,,,,,,,,,,,,
,,,,,,space,1,0,8,8,6,1,X,space,PUM11K,001,PUM11K,2024-02-26_07h59.47.316,Trial go no go,2020.2.10,Win32,60,0.3948,,,,,,,,,,,,,,,,,,,,,,,,,,
,,,,,,,1,0,9,9,9,1,V,none,PUM11K,001,PUM11K,2024-02-26_07h59.47.316,Trial go no go,2020.2.10,Win32,60,,,,,,,,,,,,,,,,,,,,,,,,,,,
,,,,,,space,1,0,10,10,1,1,X,space,PUM11K,001,PUM11K,2024-02-26_07h59.47.316,Trial go no go,2020.2.10,Win32,60,0.5412,,,,,,,,,,,,,,,,,,,,,,,,,,
,,,,,,space,1,0,11,11,3,1,X,space,PUM11K,001,PUM11K,2024-02-26_07h59.47.316,Trial go no go,2020.2.10,Win32,60,0.482,,,,,,,,,,,,,,,,,,,,,,,,,,
,,,,,,space,1,0,12,12,7,1,X,space,PUM11K,001,PUM11K,2024-02-26_07h59.47.316,Trial go no go,2020.2.10,Win32,60,0.4581,,,,,,,,,,,,,,,,,,,,,,,,,,
,,,,,,space,1,0,13,13,13,1,X,space,PUM11K,001,PUM11K,2024-02-26_07h59.47.316,Trial go no go,2020.2.10,Win32,60,0.4339,,,,,,,,,,,,,,,,,,,,,,,,,,
,,,,,,,1,0,14,14,14,1,K,none,PUM11K,001,PUM11K,2024-02-26_07h59.47.316,Trial go no go,2020.2.10,Win32,60,,,,,,,,,,,,,,,,,,,,,,,,,,,
,,,,,,,,,,,,,,,PUM11K,001,PUM11K,2024-02-26_07h59.47.316,Trial go no go,2020.2.10,Win32,60,,space,5.1911,space,1,0.6449,0,0,0,31,1,X,space,,,,,,,,,,,,,,
,,,,,,,,,,,,,,,PUM11K,001,PUM11K,2024-02-26_07h59.47.316,Trial go no go,2020.2.10,Win32,60,,,,,1,,0,1,1,29,1,T,none,,,,,,,,,,,,,,
,,,,,,,,,,,,,,,PUM11K,001,PUM11K,2024-02-26_07h59.47.316,Trial go no go,2020.2.10,Win32,60,,,,space,1,0.3196,0,2,2,5,1,X,space,,,,,,,,,,,,,,
,,,,,,,,,,,,,,,PUM11K,001,PUM11K,2024-02-26_07h59.47.316,Trial go no go,2020.2.10,Win32,60,,,,space,1,0.2758,0,3,3,36,1,X,space,,,,,,,,,,,,,,
,,,,,,,,,,,,,,,PUM11K,001,PUM11K,2024-02-26_07h59.47.316,Trial go no go,2020.2.10,Win32,60,,,,space,1,0.2965,0,4,4,32,1,X,space,,,,,,,,,,,,,,
,,,,,,,,,,,,,,,PUM11K,001,PUM11K,2024-02-26_07h59.47.316,Trial go no go,2020.2.10,Win32,60,,,,space,1,0.2824,0,5,5,25,1,X,space,,,,,,,,,,,,,,
,,,,,,,,,,,,,,,PUM11K,001,PUM11K,2024-02-26_07h59.47.316,Trial go no go,2020.2.10,Win32,60,,,,,1,,0,6,6,49,1,E,none,,,,,,,,,,,,,,
,,,,,,,,,,,,,,,PUM11K,001,PUM11K,2024-02-26_07h59.47.316,Trial go no go,2020.2.10,Win32,60,,,,space,1,0.266,0,7,7,8,1,X,space,,,,,,,,,,,,,,
,,,,,,,,,,,,,,,PUM11K,001,PUM11K,2024-02-26_07h59.47.316,Trial go no go,2020.2.10,Win32,60,,,,space,1,0.3155,0,8,8,41,1,X,space,,,,,,,,,,,,,,
,,,,,,,,,,,,,,,PUM11K,001,PUM11K,2024-02-26_07h59.47.316,Trial go no go,2020.2.10,Win32,60,,,,space,1,0.353,0,9,9,13,1,X,space,,,,,,,,,,,,,,
,,,,,,,,,,,,,,,PUM11K,001,PUM11K,2024-02-26_07h59.47.316,Trial go no go,2020.2.10,Win32,60,,,,space,1,0.3002,0,10,10,30,1,X,space,,,,,,,,,,,,,,
,,,,,,,,,,,,,,,PUM11K,001,PUM11K,2024-02-26_07h59.47.316,Trial go no go,2020.2.10,Win32,60,,,,space,1,0.2835,0,11,11,47,1,X,space,,,,,,,,,,,,,,
,,,,,,,,,,,,,,,PUM11K,001,PUM11K,2024-02-26_07h59.47.316,Trial go no go,2020.2.10,Win32,60,,,,space,1,0.2716,0,12,12,37,1,X,space,,,,,,,,,,,,,,
,,,,,,,,,,,,,,,PUM11K,001,PUM11K,2024-02-26_07h59.47.316,Trial go no go,2020.2.10,Win32,60,,,,,1,,0,13,13,4,1,V,none,,,,,,,,,,,,,,
,,,,,,,,,,,,,,,PUM11K,001,PUM11K,2024-02-26_07h59.47.316,Trial go no go,2020.2.10,Win32,60,,,,space,1,0.261,0,14,14,16,1,X,space,,,,,,,,,,,,,,
,,,,,,,,,,,,,,,PUM11K,001,PUM11K,2024-02-26_07h59.47.316,Trial go no go,2020.2.10,Win32,60,,,,space,1,0.3094,0,15,15,21,1,X,space,,,,,,,,,,,,,,
,,,,,,,,,,,,,,,PUM11K,001,PUM11K,2024-02-26_07h59.47.316,Trial go no go,2020.2.10,Win32,60,,,,space,1,0.2909,0,16,16,28,1,X,space,,,,,,,,,,,,,,
,,,,,,,,,,,,,,,PUM11K,001,PUM11K,2024-02-26_07h59.47.316,Trial go no go,2020.2.10,Win32,60,,,,,1,,0,17,17,9,1,W,none,,,,,,,,,,,,,,
,,,,,,,,,,,,,,,PUM11K,001,PUM11K,2024-02-26_07h59.47.316,Trial go no go,2020.2.10,Win32,60,,,,space,1,0.2921,0,18,18,42,1,X,space,,,,,,,,,,,,,,
,,,,,,,,,,,,,,,PUM11K,001,PUM11K,2024-02-26_07h59.47.316,Trial go no go,2020.2.10,Win32,60,,,,space,1,0.3083,0,19,19,26,1,X,space,,,,,,,,,,,,,,
,,,,,,,,,,,,,,,PUM11K,001,PUM11K,2024-02-26_07h59.47.316,Trial go no go,2020.2.10,Win32,60,,,,space,1,0.2586,0,20,20,43,1,X,space,,,,,,,,,,,,,,
,,,,,,,,,,,,,,,PUM11K,001,PUM11K,2024-02-26_07h59.47.316,Trial go no go,2020.2.10,Win32,60,,,,space,1,0.317,0,21,21,23,1,X,space,,,,,,,,,,,,,,
,,,,,,,,,,,,,,,PUM11K,001,PUM11K,2024-02-26_07h59.47.316,Trial go no go,2020.2.10,Win32,60,,,,space,1,0.2671,0,22,22,38,1,X,space,,,,,,,,,,,,,,
,,,,,,,,,,,,,,,PUM11K,001,PUM11K,2024-02-26_07h59.47.316,Trial go no go,2020.2.10,Win32,60,,,,space,1,0.2949,0,23,23,10,1,X,space,,,,,,,,,,,,,,
,,,,,,,,,,,,,,,PUM11K,001,PUM11K,2024-02-26_07h59.47.316,Trial go no go,2020.2.10,Win32,60,,,,,1,,0,24,24,34,1,N,none,,,,,,,,,,,,,,
,,,,,,,,,,,,,,,PUM11K,001,PUM11K,2024-02-26_07h59.47.316,Trial go no go,2020.2.10,Win32,60,,,,space,1,0.2596,0,25,25,7,1,X,space,,,,,,,,,,,,,,
,,,,,,,,,,,,,,,PUM11K,001,PUM11K,2024-02-26_07h59.47.316,Trial go no go,2020.2.10,Win32,60,,,,space,1,0.2673,0,26,26,48,1,X,space,,,,,,,,,,,,,,
,,,,,,,,,,,,,,,PUM11K,001,PUM11K,2024-02-26_07h59.47.316,Trial go no go,2020.2.10,Win32,60,,,,space,1,0.3014,0,27,27,17,1,X,space,,,,,,,,,,,,,,
,,,,,,,,,,,,,,,PUM11K,001,PUM11K,2024-02-26_07h59.47.316,Trial go no go,2020.2.10,Win32,60,,,,space,1,0.3259,0,28,28,46,1,X,space,,,,,,,,,,,,,,
,,,,,,,,,,,,,,,PUM11K,001,PUM11K,2024-02-26_07h59.47.316,Trial go no go,2020.2.10,Win32,60,,,,space,1,0.2777,0,29,29,20,1,X,space,,,,,,,,,,,,,,
,,,,,,,,,,,,,,,PUM11K,001,PUM11K,2024-02-26_07h59.47.316,Trial go no go,2020.2.10,Win32,60,,,,space,1,0.2832,0,30,30,1,1,X,space,,,,,,,,,,,,,,
,,,,,,,,,,,,,,,PUM11K,001,PUM11K,2024-02-26_07h59.47.316,Trial go no go,2020.2.10,Win32,60,,,,space,1,0.2753,0,31,31,40,1,X,space,,,,,,,,,,,,,,
,,,,,,,,,,,,,,,PUM11K,001,PUM11K,2024-02-26_07h59.47.316,Trial go no go,2020.2.10,Win32,60,,,,space,1,0.3006,0,32,32,3,1,X,space,,,,,,,,,,,,,,
,,,,,,,,,,,,,,,PUM11K,001,PUM11K,2024-02-26_07h59.47.316,Trial go no go,2020.2.10,Win32,60,,,,,1,,0,33,33,19,1,K,none,,,,,,,,,,,,,,
,,,,,,,,,,,,,,,PUM11K,001,PUM11K,2024-02-26_07h59.47.316,Trial go no go,2020.2.10,Win32,60,,,,space,1,0.3265,0,34,34,45,1,X,space,,,,,,,,,,,,,,
,,,,,,,,,,,,,,,PUM11K,001,PUM11K,2024-02-26_07h59.47.316,Trial go no go,2020.2.10,Win32,60,,,,space,1,0.277,0,35,35,2,1,X,space,,,,,,,,,,,,,,
,,,,,,,,,,,,,,,PUM11K,001,PUM11K,2024-02-26_07h59.47.316,Trial go no go,2020.2.10,Win32,60,,,,space,1,0.2712,0,36,36,22,1,X,space,,,,,,,,,,,,,,
,,,,,,,,,,,,,,,PUM11K,001,PUM11K,2024-02-26_07h59.47.316,Trial go no go,2020.2.10,Win32,60,,,,space,1,0.2944,0,37,37,11,1,X,space,,,,,,,,,,,,,,
,,,,,,,,,,,,,,,PUM11K,001,PUM11K,2024-02-26_07h59.47.316,Trial go no go,2020.2.10,Win32,60,,,,space,1,0.2854,0,38,38,27,1,X,space,,,,,,,,,,,,,,
,,,,,,,,,,,,,,,PUM11K,001,PUM11K,2024-02-26_07h59.47.316,Trial go no go,2020.2.10,Win32,60,,,,space,1,0.269,0,39,39,15,1,X,space,,,,,,,,,,,,,,
,,,,,,,,,,,,,,,PUM11K,001,PUM11K,2024-02-26_07h59.47.316,Trial go no go,2020.2.10,Win32,60,,,,,1,,0,40,40,39,1,M,none,,,,,,,,,,,,,,
,,,,,,,,,,,,,,,PUM11K,001,PUM11K,2024-02-26_07h59.47.316,Trial go no go,2020.2.10,Win32,60,,,,space,1,0.3072,0,41,41,12,1,X,space,,,,,,,,,,,,,,
,,,,,,,,,,,,,,,PUM11K,001,PUM11K,2024-02-26_07h59.47.316,Trial go no go,2020.2.10,Win32,60,,,,space,1,0.2883,0,42,42,33,1,X,space,,,,,,,,,,,,,,
,,,,,,,,,,,,,,,PUM11K,001,PUM11K,2024-02-26_07h59.47.316,Trial go no go,2020.2.10,Win32,60,,,,space,1,0.4025,0,43,43,0,1,X,space,,,,,,,,,,,,,,
,,,,,,,,,,,,,,,PUM11K,001,PUM11K,2024-02-26_07h59.47.316,Trial go no go,2020.2.10,Win32,60,,,,space,1,0.2848,0,44,44,6,1,X,space,,,,,,,,,,,,,,
,,,,,,,,,,,,,,,PUM11K,001,PUM11K,2024-02-26_07h59.47.316,Trial go no go,2020.2.10,Win32,60,,,,space,0,0.2907,0,45,45,24,1,H,none,,,,,,,,,,,,,,
,,,,,,,,,,,,,,,PUM11K,001,PUM11K,2024-02-26_07h59.47.316,Trial go no go,2020.2.10,Win32,60,,,,,1,,0,46,46,44,1,F,none,,,,,,,,,,,,,,
,,,,,,,,,,,,,,,PUM11K,001,PUM11K,2024-02-26_07h59.47.316,Trial go no go,2020.2.10,Win32,60,,,,,1,,0,47,47,14,1,Y,none,,,,,,,,,,,,,,
,,,,,,,,,,,,,,,PUM11K,001,PUM11K,2024-02-26_07h59.47.316,Trial go no go,2020.2.10,Win32,60,,,,space,1,0.3423,0,48,48,35,1,X,space,,,,,,,,,,,,,,
,,,,,,,,,,,,,,,PUM11K,001,PUM11K,2024-02-26_07h59.47.316,Trial go no go,2020.2.10,Win32,60,,,,space,1,0.4243,0,49,49,18,1,X,space,,,,,,,,,,,,,,
,,,,,,,,,,,,,,,PUM11K,001,PUM11K,2024-02-26_07h59.47.316,Trial go no go,2020.2.10,Win32,60,,,,,,,,,,,,,,z,21.889,,1,0,0,0,24,1,X,none,,,
,,,,,,,,,,,,,,,PUM11K,001,PUM11K,2024-02-26_07h59.47.316,Trial go no go,2020.2.10,Win32,60,,,,,,,,,,,,,,,,space,1,0,1,1,45,1,A,space,0.4016,,
,,,,,,,,,,,,,,,PUM11K,001,PUM11K,2024-02-26_07h59.47.316,Trial go no go,2020.2.10,Win32,60,,,,,,,,,,,,,,,,space,1,0,2,2,22,1,T,space,0.3459,,
,,,,,,,,,,,,,,,PUM11K,001,PUM11K,2024-02-26_07h59.47.316,Trial go no go,2020.2.10,Win32,60,,,,,,,,,,,,,,,,space,1,0,3,3,16,1,N,space,0.3257,,
,,,,,,,,,,,,,,,PUM11K,001,PUM11K,2024-02-26_07h59.47.316,Trial go no go,2020.2.10,Win32,60,,,,,,,,,,,,,,,,,1,0,4,4,34,1,X,none,,,
,,,,,,,,,,,,,,,PUM11K,001,PUM11K,2024-02-26_07h59.47.316,Trial go no go,2020.2.10,Win32,60,,,,,,,,,,,,,,,,space,1,0,5,5,6,1,I,space,0.2505,,
,,,,,,,,,,,,,,,PUM11K,001,PUM11K,2024-02-26_07h59.47.316,Trial go no go,2020.2.10,Win32,60,,,,,,,,,,,,,,,,,1,0,6,6,19,1,X,none,,,
,,,,,,,,,,,,,,,PUM11K,001,PUM11K,2024-02-26_07h59.47.316,Trial go no go,2020.2.10,Win32,60,,,,,,,,,,,,,,,,space,1,0,7,7,48,1,K,space,0.3038,,
,,,,,,,,,,,,,,,PUM11K,001,PUM11K,2024-02-26_07h59.47.316,Trial go no go,2020.2.10,Win32,60,,,,,,,,,,,,,,,,space,1,0,8,8,12,1,L,space,0.284,,
,,,,,,,,,,,,,,,PUM11K,001,PUM11K,2024-02-26_07h59.47.316,Trial go no go,2020.2.10,Win32,60,,,,,,,,,,,,,,,,space,1,0,9,9,15,1,V,space,0.2851,,
,,,,,,,,,,,,,,,PUM11K,001,PUM11K,2024-02-26_07h59.47.316,Trial go no go,2020.2.10,Win32,60,,,,,,,,,,,,,,,,space,0,0,10,10,44,1,X,none,0.2834,,
,,,,,,,,,,,,,,,PUM11K,001,PUM11K,2024-02-26_07h59.47.316,Trial go no go,2020.2.10,Win32,60,,,,,,,,,,,,,,,,space,1,0,11,11,20,1,E,space,0.468,,
,,,,,,,,,,,,,,,PUM11K,001,PUM11K,2024-02-26_07h59.47.316,Trial go no go,2020.2.10,Win32,60,,,,,,,,,,,,,,,,space,1,0,12,12,26,1,A,space,0.3587,,
,,,,,,,,,,,,,,,PUM11K,001,PUM11K,2024-02-26_07h59.47.316,Trial go no go,2020.2.10,Win32,60,,,,,,,,,,,,,,,,space,1,0,13,13,35,1,N,space,0.2927,,
,,,,,,,,,,,,,,,PUM11K,001,PUM11K,2024-02-26_07h59.47.316,Trial go no go,2020.2.10,Win32,60,,,,,,,,,,,,,,,,space,1,0,14,14,17,1,M,space,0.3588,,
,,,,,,,,,,,,,,,PUM11K,001,PUM11K,2024-02-26_07h59.47.316,Trial go no go,2020.2.10,Win32,60,,,,,,,,,,,,,,,,space,1,0,15,15,3,1,T,space,0.3448,,
,,,,,,,,,,,,,,,PUM11K,001,PUM11K,2024-02-26_07h59.47.316,Trial go no go,2020.2.10,Win32,60,,,,,,,,,,,,,,,,space,1,0,16,16,11,1,K,space,0.3258,,
,,,,,,,,,,,,,,,PUM11K,001,PUM11K,2024-02-26_07h59.47.316,Trial go no go,2020.2.10,Win32,60,,,,,,,,,,,,,,,,,1,0,17,17,39,1,X,none,,,
,,,,,,,,,,,,,,,PUM11K,001,PUM11K,2024-02-26_07h59.47.316,Trial go no go,2020.2.10,Win32,60,,,,,,,,,,,,,,,,space,1,0,18,18,47,1,H,space,0.2498,,
,,,,,,,,,,,,,,,PUM11K,001,PUM11K,2024-02-26_07h59.47.316,Trial go no go,2020.2.10,Win32,60,,,,,,,,,,,,,,,,space,1,0,19,19,46,1,F,space,0.2836,,
,,,,,,,,,,,,,,,PUM11K,001,PUM11K,2024-02-26_07h59.47.316,Trial go no go,2020.2.10,Win32,60,,,,,,,,,,,,,,,,space,1,0,20,20,2,1,R,space,0.2764,,
,,,,,,,,,,,,,,,PUM11K,001,PUM11K,2024-02-26_07h59.47.316,Trial go no go,2020.2.10,Win32,60,,,,,,,,,,,,,,,,space,1,0,21,21,0,1,W,space,0.2255,,
,,,,,,,,,,,,,,,PUM11K,001,PUM11K,2024-02-26_07h59.47.316,Trial go no go,2020.2.10,Win32,60,,,,,,,,,,,,,,,,space,1,0,22,22,43,1,I,space,0.2648,,
,,,,,,,,,,,,,,,PUM11K,001,PUM11K,2024-02-26_07h59.47.316,Trial go no go,2020.2.10,Win32,60,,,,,,,,,,,,,,,,space,1,0,23,23,40,1,R,space,0.2839,,
,,,,,,,,,,,,,,,PUM11K,001,PUM11K,2024-02-26_07h59.47.316,Trial go no go,2020.2.10,Win32,60,,,,,,,,,,,,,,,,,1,0,24,24,14,1,X,none,,,
,,,,,,,,,,,,,,,PUM11K,001,PUM11K,2024-02-26_07h59.47.316,Trial go no go,2020.2.10,Win32,60,,,,,,,,,,,,,,,,space,1,0,25,25,36,1,M,space,0.2404,,
,,,,,,,,,,,,,,,PUM11K,001,PUM11K,2024-02-26_07h59.47.316,Trial go no go,2020.2.10,Win32,60,,,,,,,,,,,,,,,,space,1,0,26,26,42,1,Y,space,0.2348,,
,,,,,,,,,,,,,,,PUM11K,001,PUM11K,2024-02-26_07h59.47.316,Trial go no go,2020.2.10,Win32,60,,,,,,,,,,,,,,,,space,1,0,27,27,31,1,L,space,0.2998,,
,,,,,,,,,,,,,,,PUM11K,001,PUM11K,2024-02-26_07h59.47.316,Trial go no go,2020.2.10,Win32,60,,,,,,,,,,,,,,,,,1,0,28,28,4,1,X,none,,,
,,,,,,,,,,,,,,,PUM11K,001,PUM11K,2024-02-26_07h59.47.316,Trial go no go,2020.2.10,Win32,60,,,,,,,,,,,,,,,,space,1,0,29,29,7,1,A,space,0.2612,,
,,,,,,,,,,,,,,,PUM11K,001,PUM11K,2024-02-26_07h59.47.316,Trial go no go,2020.2.10,Win32,60,,,,,,,,,,,,,,,,space,1,0,30,30,38,1,E,space,0.2857,,
,,,,,,,,,,,,,,,PUM11K,001,PUM11K,2024-02-26_07h59.47.316,Trial go no go,2020.2.10,Win32,60,,,,,,,,,,,,,,,,space,1,0,31,31,28,1,H,space,0.3002,,
,,,,,,,,,,,,,,,PUM11K,001,PUM11K,2024-02-26_07h59.47.316,Trial go no go,2020.2.10,Win32,60,,,,,,,,,,,,,,,,space,1,0,32,32,33,1,V,space,0.3,,
,,,,,,,,,,,,,,,PUM11K,001,PUM11K,2024-02-26_07h59.47.316,Trial go no go,2020.2.10,Win32,60,,,,,,,,,,,,,,,,space,1,0,33,33,8,1,F,space,0.2982,,
,,,,,,,,,,,,,,,PUM11K,001,PUM11K,2024-02-26_07h59.47.316,Trial go no go,2020.2.10,Win32,60,,,,,,,,,,,,,,,,space,1,0,34,34,1,1,E,space,0.2921,,
,,,,,,,,,,,,,,,PUM11K,001,PUM11K,2024-02-26_07h59.47.316,Trial go no go,2020.2.10,Win32,60,,,,,,,,,,,,,,,,,1,0,35,35,9,1,X,none,,,
,,,,,,,,,,,,,,,PUM11K,001,PUM11K,2024-02-26_07h59.47.316,Trial go no go,2020.2.10,Win32,60,,,,,,,,,,,,,,,,space,1,0,36,36,23,1,Y,space,0.2702,,
,,,,,,,,,,,,,,,PUM11K,001,PUM11K,2024-02-26_07h59.47.316,Trial go no go,2020.2.10,Win32,60,,,,,,,,,,,,,,,,space,1,0,37,37,25,1,I,space,0.3177,,
,,,,,,,,,,,,,,,PUM11K,001,PUM11K,2024-02-26_07h59.47.316,Trial go no go,2020.2.10,Win32,60,,,,,,,,,,,,,,,,space,1,0,38,38,32,1,Z,space,0.2731,,
,,,,,,,,,,,,,,,PUM11K,001,PUM11K,2024-02-26_07h59.47.316,Trial go no go,2020.2.10,Win32,60,,,,,,,,,,,,,,,,space,1,0,39,39,18,1,W,space,0.2918,,
,,,,,,,,,,,,,,,PUM11K,001,PUM11K,2024-02-26_07h59.47.316,Trial go no go,2020.2.10,Win32,60,,,,,,,,,,,,,,,,space,1,0,40,40,30,1,K,space,0.3192,,
,,,,,,,,,,,,,,,PUM11K,001,PUM11K,2024-02-26_07h59.47.316,Trial go no go,2020.2.10,Win32,60,,,,,,,,,,,,,,,,space,0,0,41,41,29,1,X,none,0.2706,,
,,,,,,,,,,,,,,,PUM11K,001,PUM11K,2024-02-26_07h59.47.316,Trial go no go,2020.2.10,Win32,60,,,,,,,,,,,,,,,,space,1,0,42,42,10,1,H,space,0.3314,,
,,,,,,,,,,,,,,,PUM11K,001,PUM11K,2024-02-26_07h59.47.316,Trial go no go,2020.2.10,Win32,60,,,,,,,,,,,,,,,,space,1,0,43,43,41,1,T,space,0.284,,
,,,,,,,,,,,,,,,PUM11K,001,PUM11K,2024-02-26_07h59.47.316,Trial go no go,2020.2.10,Win32,60,,,,,,,,,,,,,,,,space,1,0,44,44,27,1,F,space,0.2856,,
,,,,,,,,,,,,,,,PUM11K,001,PUM11K,2024-02-26_07h59.47.316,Trial go no go,2020.2.10,Win32,60,,,,,,,,,,,,,,,,space,1,0,45,45,21,1,R,space,0.3016,,
,,,,,,,,,,,,,,,PUM11K,001,PUM11K,2024-02-26_07h59.47.316,Trial go no go,2020.2.10,Win32,60,,,,,,,,,,,,,,,,space,1,0,46,46,5,1,Y,space,0.3269,,
,,,,,,,,,,,,,,,PUM11K,001,PUM11K,2024-02-26_07h59.47.316,Trial go no go,2020.2.10,Win32,60,,,,,,,,,,,,,,,,space,0,0,47,47,49,1,X,none,0.3436,,
,,,,,,,,,,,,,,,PUM11K,001,PUM11K,2024-02-26_07h59.47.316,Trial go no go,2020.2.10,Win32,60,,,,,,,,,,,,,,,,space,1,0,48,48,13,1,Z,space,0.2836,,
,,,,,,,,,,,,,,,PUM11K,001,PUM11K,2024-02-26_07h59.47.316,Trial go no go,2020.2.10,Win32,60,,,,,,,,,,,,,,,,space,1,0,49,49,37,1,W,space,0.3084,,
,,,,,,,,,,,,,,,PUM11K,001,PUM11K,2024-02-26_07h59.47.316,Trial go no go,2020.2.10,Win32,60,,,,,,,,,,,,,,,,,,,,,,,,,,space,74.7408
