resp_Welcome.keys,resp_Welcome.rt,resp_Instr_Intro.keys,resp_Instr_Intro.rt,resp_Instr_Prac1.keys,resp_Instr_Prac1.rt,resp_trial_Prac1.keys,resp_trial_Prac1.corr,resp_trial_Prac1.rt,prac_trials.thisRepN,prac_trials.thisTrialN,prac_trials.thisN,prac_trials.thisIndex,prac_trials.ran,stimulus_prac1,corrAns_prac1,participant,session,indywidualny kod,date,expName,psychopyVersion,OS,frameRate,resp_Instr_Test1.keys,resp_Instr_Test1.rt,resp_trial_Test1.keys,resp_trial_Test1.corr,test1trial.thisRepN,test1trial.thisTrialN,test1trial.thisN,test1trial.thisIndex,test1trial.ran,stimulus_test1,corrAns_test1,resp_trial_Test1.rt,resp_Instr_Test2.keys,resp_Instr_Test2.rt,key_resp_Test2.keys,key_resp_Test2.corr,test2trial.thisRepN,test2trial.thisTrialN,test2trial.thisN,test2trial.thisIndex,test2trial.ran,stimulus_test2,corrAns_test2,key_resp_Test2.rt,resp_theEnd.keys,resp_theEnd.rt
space,13.4222,space,15.0232,space,8.4839,space,1,0.5927,0,0,0,3,1,X,space,PUM14K,001,PUM14K,2024-02-26_08h39.29.786,Trial go no go,2020.2.10,Win32,60,,,,,,,,,,,,,,,,,,,,,,,,,,
,,,,,,,1,,0,1,1,14,1,K,none,PUM14K,001,PUM14K,2024-02-26_08h39.29.786,Trial go no go,2020.2.10,Win32,60,,,,,,,,,,,,,,,,,,,,,,,,,,
,,,,,,space,1,0.4778,0,2,2,2,1,X,space,PUM14K,001,PUM14K,2024-02-26_08h39.29.786,Trial go no go,2020.2.10,Win32,60,,,,,,,,,,,,,,,,,,,,,,,,,,
,,,,,,space,1,0.459,0,3,3,0,1,X,space,PUM14K,001,PUM14K,2024-02-26_08h39.29.786,Trial go no go,2020.2.10,Win32,60,,,,,,,,,,,,,,,,,,,,,,,,,,
,,,,,,space,1,0.3585,0,4,4,8,1,X,space,PUM14K,001,PUM14K,2024-02-26_08h39.29.786,Trial go no go,2020.2.10,Win32,60,,,,,,,,,,,,,,,,,,,,,,,,,,
,,,,,,space,1,0.407,0,5,5,6,1,X,space,PUM14K,001,PUM14K,2024-02-26_08h39.29.786,Trial go no go,2020.2.10,Win32,60,,,,,,,,,,,,,,,,,,,,,,,,,,
,,,,,,space,1,0.3826,0,6,6,11,1,X,space,PUM14K,001,PUM14K,2024-02-26_08h39.29.786,Trial go no go,2020.2.10,Win32,60,,,,,,,,,,,,,,,,,,,,,,,,,,
,,,,,,space,1,0.3753,0,7,7,10,1,X,space,PUM14K,001,PUM14K,2024-02-26_08h39.29.786,Trial go no go,2020.2.10,Win32,60,,,,,,,,,,,,,,,,,,,,,,,,,,
,,,,,,space,1,0.3585,0,8,8,1,1,X,space,PUM14K,001,PUM14K,2024-02-26_08h39.29.786,Trial go no go,2020.2.10,Win32,60,,,,,,,,,,,,,,,,,,,,,,,,,,
,,,,,,space,1,0.353,0,9,9,12,1,X,space,PUM14K,001,PUM14K,2024-02-26_08h39.29.786,Trial go no go,2020.2.10,Win32,60,,,,,,,,,,,,,,,,,,,,,,,,,,
,,,,,,space,1,0.3505,0,10,10,13,1,X,space,PUM14K,001,PUM14K,2024-02-26_08h39.29.786,Trial go no go,2020.2.10,Win32,60,,,,,,,,,,,,,,,,,,,,,,,,,,
,,,,,,space,1,0.3282,0,11,11,5,1,X,space,PUM14K,001,PUM14K,2024-02-26_08h39.29.786,Trial go no go,2020.2.10,Win32,60,,,,,,,,,,,,,,,,,,,,,,,,,,
,,,,,,space,1,0.301,0,12,12,7,1,X,space,PUM14K,001,PUM14K,2024-02-26_08h39.29.786,Trial go no go,2020.2.10,Win32,60,,,,,,,,,,,,,,,,,,,,,,,,,,
,,,,,,space,0,0.3598,0,13,13,9,1,V,none,PUM14K,001,PUM14K,2024-02-26_08h39.29.786,Trial go no go,2020.2.10,Win32,60,,,,,,,,,,,,,,,,,,,,,,,,,,
,,,,,,,1,,0,14,14,4,1,W,none,PUM14K,001,PUM14K,2024-02-26_08h39.29.786,Trial go no go,2020.2.10,Win32,60,,,,,,,,,,,,,,,,,,,,,,,,,,
,,,,,,,,,,,,,,,,PUM14K,001,PUM14K,2024-02-26_08h39.29.786,Trial go no go,2020.2.10,Win32,60,space,2.4593,,0,0,0,0,2,1,X,space,,,,,,,,,,,,,,,
,,,,,,,,,,,,,,,,PUM14K,001,PUM14K,2024-02-26_08h39.29.786,Trial go no go,2020.2.10,Win32,60,,,space,1,0,1,1,31,1,X,space,0.2658,,,,,,,,,,,,,,
,,,,,,,,,,,,,,,,PUM14K,001,PUM14K,2024-02-26_08h39.29.786,Trial go no go,2020.2.10,Win32,60,,,space,1,0,2,2,12,1,X,space,0.2249,,,,,,,,,,,,,,
,,,,,,,,,,,,,,,,PUM14K,001,PUM14K,2024-02-26_08h39.29.786,Trial go no go,2020.2.10,Win32,60,,,space,1,0,3,3,42,1,X,space,0.2431,,,,,,,,,,,,,,
,,,,,,,,,,,,,,,,PUM14K,001,PUM14K,2024-02-26_08h39.29.786,Trial go no go,2020.2.10,Win32,60,,,,1,0,4,4,29,1,T,none,,,,,,,,,,,,,,,
,,,,,,,,,,,,,,,,PUM14K,001,PUM14K,2024-02-26_08h39.29.786,Trial go no go,2020.2.10,Win32,60,,,,1,0,5,5,24,1,H,none,,,,,,,,,,,,,,,
,,,,,,,,,,,,,,,,PUM14K,001,PUM14K,2024-02-26_08h39.29.786,Trial go no go,2020.2.10,Win32,60,,,space,1,0,6,6,13,1,X,space,0.3033,,,,,,,,,,,,,,
,,,,,,,,,,,,,,,,PUM14K,001,PUM14K,2024-02-26_08h39.29.786,Trial go no go,2020.2.10,Win32,60,,,,0,0,7,7,36,1,X,space,,,,,,,,,,,,,,,
,,,,,,,,,,,,,,,,PUM14K,001,PUM14K,2024-02-26_08h39.29.786,Trial go no go,2020.2.10,Win32,60,,,space,1,0,8,8,10,1,X,space,0.2003,,,,,,,,,,,,,,
,,,,,,,,,,,,,,,,PUM14K,001,PUM14K,2024-02-26_08h39.29.786,Trial go no go,2020.2.10,Win32,60,,,space,1,0,9,9,27,1,X,space,0.2153,,,,,,,,,,,,,,
,,,,,,,,,,,,,,,,PUM14K,001,PUM14K,2024-02-26_08h39.29.786,Trial go no go,2020.2.10,Win32,60,,,space,1,0,10,10,0,1,X,space,0.2339,,,,,,,,,,,,,,
,,,,,,,,,,,,,,,,PUM14K,001,PUM14K,2024-02-26_08h39.29.786,Trial go no go,2020.2.10,Win32,60,,,space,1,0,11,11,15,1,X,space,0.233,,,,,,,,,,,,,,
,,,,,,,,,,,,,,,,PUM14K,001,PUM14K,2024-02-26_08h39.29.786,Trial go no go,2020.2.10,Win32,60,,,,1,0,12,12,14,1,Y,none,,,,,,,,,,,,,,,
,,,,,,,,,,,,,,,,PUM14K,001,PUM14K,2024-02-26_08h39.29.786,Trial go no go,2020.2.10,Win32,60,,,,1,0,13,13,49,1,E,none,,,,,,,,,,,,,,,
,,,,,,,,,,,,,,,,PUM14K,001,PUM14K,2024-02-26_08h39.29.786,Trial go no go,2020.2.10,Win32,60,,,space,1,0,14,14,43,1,X,space,0.3686,,,,,,,,,,,,,,
,,,,,,,,,,,,,,,,PUM14K,001,PUM14K,2024-02-26_08h39.29.786,Trial go no go,2020.2.10,Win32,60,,,space,1,0,15,15,25,1,X,space,0.6327,,,,,,,,,,,,,,
,,,,,,,,,,,,,,,,PUM14K,001,PUM14K,2024-02-26_08h39.29.786,Trial go no go,2020.2.10,Win32,60,,,space,1,0,16,16,5,1,X,space,0.3923,,,,,,,,,,,,,,
,,,,,,,,,,,,,,,,PUM14K,001,PUM14K,2024-02-26_08h39.29.786,Trial go no go,2020.2.10,Win32,60,,,space,1,0,17,17,20,1,X,space,0.2934,,,,,,,,,,,,,,
,,,,,,,,,,,,,,,,PUM14K,001,PUM14K,2024-02-26_08h39.29.786,Trial go no go,2020.2.10,Win32,60,,,space,1,0,18,18,33,1,X,space,0.2483,,,,,,,,,,,,,,
,,,,,,,,,,,,,,,,PUM14K,001,PUM14K,2024-02-26_08h39.29.786,Trial go no go,2020.2.10,Win32,60,,,space,1,0,19,19,32,1,X,space,0.2339,,,,,,,,,,,,,,
,,,,,,,,,,,,,,,,PUM14K,001,PUM14K,2024-02-26_08h39.29.786,Trial go no go,2020.2.10,Win32,60,,,space,1,0,20,20,3,1,X,space,0.2443,,,,,,,,,,,,,,
,,,,,,,,,,,,,,,,PUM14K,001,PUM14K,2024-02-26_08h39.29.786,Trial go no go,2020.2.10,Win32,60,,,space,1,0,21,21,7,1,X,space,0.2347,,,,,,,,,,,,,,
,,,,,,,,,,,,,,,,PUM14K,001,PUM14K,2024-02-26_08h39.29.786,Trial go no go,2020.2.10,Win32,60,,,space,1,0,22,22,1,1,X,space,0.2259,,,,,,,,,,,,,,
,,,,,,,,,,,,,,,,PUM14K,001,PUM14K,2024-02-26_08h39.29.786,Trial go no go,2020.2.10,Win32,60,,,space,1,0,23,23,16,1,X,space,0.293,,,,,,,,,,,,,,
,,,,,,,,,,,,,,,,PUM14K,001,PUM14K,2024-02-26_08h39.29.786,Trial go no go,2020.2.10,Win32,60,,,space,1,0,24,24,38,1,X,space,0.2363,,,,,,,,,,,,,,
,,,,,,,,,,,,,,,,PUM14K,001,PUM14K,2024-02-26_08h39.29.786,Trial go no go,2020.2.10,Win32,60,,,space,1,0,25,25,22,1,X,space,0.2228,,,,,,,,,,,,,,
,,,,,,,,,,,,,,,,PUM14K,001,PUM14K,2024-02-26_08h39.29.786,Trial go no go,2020.2.10,Win32,60,,,space,1,0,26,26,11,1,X,space,0.1961,,,,,,,,,,,,,,
,,,,,,,,,,,,,,,,PUM14K,001,PUM14K,2024-02-26_08h39.29.786,Trial go no go,2020.2.10,Win32,60,,,space,1,0,27,27,21,1,X,space,0.2196,,,,,,,,,,,,,,
,,,,,,,,,,,,,,,,PUM14K,001,PUM14K,2024-02-26_08h39.29.786,Trial go no go,2020.2.10,Win32,60,,,space,1,0,28,28,30,1,X,space,0.2335,,,,,,,,,,,,,,
,,,,,,,,,,,,,,,,PUM14K,001,PUM14K,2024-02-26_08h39.29.786,Trial go no go,2020.2.10,Win32,60,,,,1,0,29,29,44,1,F,none,,,,,,,,,,,,,,,
,,,,,,,,,,,,,,,,PUM14K,001,PUM14K,2024-02-26_08h39.29.786,Trial go no go,2020.2.10,Win32,60,,,space,1,0,30,30,18,1,X,space,0.3769,,,,,,,,,,,,,,
,,,,,,,,,,,,,,,,PUM14K,001,PUM14K,2024-02-26_08h39.29.786,Trial go no go,2020.2.10,Win32,60,,,space,1,0,31,31,6,1,X,space,0.2516,,,,,,,,,,,,,,
,,,,,,,,,,,,,,,,PUM14K,001,PUM14K,2024-02-26_08h39.29.786,Trial go no go,2020.2.10,Win32,60,,,space,1,0,32,32,45,1,X,space,0.2332,,,,,,,,,,,,,,
,,,,,,,,,,,,,,,,PUM14K,001,PUM14K,2024-02-26_08h39.29.786,Trial go no go,2020.2.10,Win32,60,,,space,1,0,33,33,48,1,X,space,0.2842,,,,,,,,,,,,,,
,,,,,,,,,,,,,,,,PUM14K,001,PUM14K,2024-02-26_08h39.29.786,Trial go no go,2020.2.10,Win32,60,,,space,1,0,34,34,8,1,X,space,0.2255,,,,,,,,,,,,,,
,,,,,,,,,,,,,,,,PUM14K,001,PUM14K,2024-02-26_08h39.29.786,Trial go no go,2020.2.10,Win32,60,,,space,1,0,35,35,46,1,X,space,0.2287,,,,,,,,,,,,,,
,,,,,,,,,,,,,,,,PUM14K,001,PUM14K,2024-02-26_08h39.29.786,Trial go no go,2020.2.10,Win32,60,,,space,0,0,36,36,39,1,M,none,0.2399,,,,,,,,,,,,,,
,,,,,,,,,,,,,,,,PUM14K,001,PUM14K,2024-02-26_08h39.29.786,Trial go no go,2020.2.10,Win32,60,,,space,1,0,37,37,35,1,X,space,0.3996,,,,,,,,,,,,,,
,,,,,,,,,,,,,,,,PUM14K,001,PUM14K,2024-02-26_08h39.29.786,Trial go no go,2020.2.10,Win32,60,,,,1,0,38,38,9,1,W,none,,,,,,,,,,,,,,,
,,,,,,,,,,,,,,,,PUM14K,001,PUM14K,2024-02-26_08h39.29.786,Trial go no go,2020.2.10,Win32,60,,,space,1,0,39,39,41,1,X,space,0.3915,,,,,,,,,,,,,,
,,,,,,,,,,,,,,,,PUM14K,001,PUM14K,2024-02-26_08h39.29.786,Trial go no go,2020.2.10,Win32,60,,,space,1,0,40,40,37,1,X,space,0.3349,,,,,,,,,,,,,,
,,,,,,,,,,,,,,,,PUM14K,001,PUM14K,2024-02-26_08h39.29.786,Trial go no go,2020.2.10,Win32,60,,,space,1,0,41,41,40,1,X,space,0.258,,,,,,,,,,,,,,
,,,,,,,,,,,,,,,,PUM14K,001,PUM14K,2024-02-26_08h39.29.786,Trial go no go,2020.2.10,Win32,60,,,space,1,0,42,42,26,1,X,space,0.2414,,,,,,,,,,,,,,
,,,,,,,,,,,,,,,,PUM14K,001,PUM14K,2024-02-26_08h39.29.786,Trial go no go,2020.2.10,Win32,60,,,space,0,0,43,43,19,1,K,none,0.265,,,,,,,,,,,,,,
,,,,,,,,,,,,,,,,PUM14K,001,PUM14K,2024-02-26_08h39.29.786,Trial go no go,2020.2.10,Win32,60,,,,0,0,44,44,47,1,X,space,,,,,,,,,,,,,,,
,,,,,,,,,,,,,,,,PUM14K,001,PUM14K,2024-02-26_08h39.29.786,Trial go no go,2020.2.10,Win32,60,,,space,0,0,45,45,4,1,V,none,0.1837,,,,,,,,,,,,,,
,,,,,,,,,,,,,,,,PUM14K,001,PUM14K,2024-02-26_08h39.29.786,Trial go no go,2020.2.10,Win32,60,,,,1,0,46,46,34,1,N,none,,,,,,,,,,,,,,,
,,,,,,,,,,,,,,,,PUM14K,001,PUM14K,2024-02-26_08h39.29.786,Trial go no go,2020.2.10,Win32,60,,,space,1,0,47,47,17,1,X,space,0.3915,,,,,,,,,,,,,,
,,,,,,,,,,,,,,,,PUM14K,001,PUM14K,2024-02-26_08h39.29.786,Trial go no go,2020.2.10,Win32,60,,,space,1,0,48,48,23,1,X,space,0.4423,,,,,,,,,,,,,,
,,,,,,,,,,,,,,,,PUM14K,001,PUM14K,2024-02-26_08h39.29.786,Trial go no go,2020.2.10,Win32,60,,,space,1,0,49,49,28,1,X,space,0.2775,,,,,,,,,,,,,,
,,,,,,,,,,,,,,,,PUM14K,001,PUM14K,2024-02-26_08h39.29.786,Trial go no go,2020.2.10,Win32,60,,,,,,,,,,,,,z,19.3065,,0,0,0,0,7,1,A,space,,,
,,,,,,,,,,,,,,,,PUM14K,001,PUM14K,2024-02-26_08h39.29.786,Trial go no go,2020.2.10,Win32,60,,,,,,,,,,,,,,,,0,0,1,1,40,1,R,space,,,
,,,,,,,,,,,,,,,,PUM14K,001,PUM14K,2024-02-26_08h39.29.786,Trial go no go,2020.2.10,Win32,60,,,,,,,,,,,,,,,space,1,0,2,2,33,1,V,space,0.8756,,
,,,,,,,,,,,,,,,,PUM14K,001,PUM14K,2024-02-26_08h39.29.786,Trial go no go,2020.2.10,Win32,60,,,,,,,,,,,,,,,space,1,0,3,3,26,1,A,space,0.6159,,
,,,,,,,,,,,,,,,,PUM14K,001,PUM14K,2024-02-26_08h39.29.786,Trial go no go,2020.2.10,Win32,60,,,,,,,,,,,,,,,space,1,0,4,4,35,1,N,space,0.7418,,
,,,,,,,,,,,,,,,,PUM14K,001,PUM14K,2024-02-26_08h39.29.786,Trial go no go,2020.2.10,Win32,60,,,,,,,,,,,,,,,,1,0,5,5,44,1,X,none,,,
,,,,,,,,,,,,,,,,PUM14K,001,PUM14K,2024-02-26_08h39.29.786,Trial go no go,2020.2.10,Win32,60,,,,,,,,,,,,,,,,0,0,6,6,3,1,T,space,,,
,,,,,,,,,,,,,,,,PUM14K,001,PUM14K,2024-02-26_08h39.29.786,Trial go no go,2020.2.10,Win32,60,,,,,,,,,,,,,,,space,1,0,7,7,12,1,L,space,0.4591,,
,,,,,,,,,,,,,,,,PUM14K,001,PUM14K,2024-02-26_08h39.29.786,Trial go no go,2020.2.10,Win32,60,,,,,,,,,,,,,,,space,1,0,8,8,28,1,H,space,0.4157,,
,,,,,,,,,,,,,,,,PUM14K,001,PUM14K,2024-02-26_08h39.29.786,Trial go no go,2020.2.10,Win32,60,,,,,,,,,,,,,,,space,1,0,9,9,17,1,M,space,0.4171,,
,,,,,,,,,,,,,,,,PUM14K,001,PUM14K,2024-02-26_08h39.29.786,Trial go no go,2020.2.10,Win32,60,,,,,,,,,,,,,,,,1,0,10,10,39,1,X,none,,,
,,,,,,,,,,,,,,,,PUM14K,001,PUM14K,2024-02-26_08h39.29.786,Trial go no go,2020.2.10,Win32,60,,,,,,,,,,,,,,,space,1,0,11,11,41,1,T,space,0.3321,,
,,,,,,,,,,,,,,,,PUM14K,001,PUM14K,2024-02-26_08h39.29.786,Trial go no go,2020.2.10,Win32,60,,,,,,,,,,,,,,,space,1,0,12,12,5,1,Y,space,0.3232,,
,,,,,,,,,,,,,,,,PUM14K,001,PUM14K,2024-02-26_08h39.29.786,Trial go no go,2020.2.10,Win32,60,,,,,,,,,,,,,,,space,1,0,13,13,27,1,F,space,0.3123,,
,,,,,,,,,,,,,,,,PUM14K,001,PUM14K,2024-02-26_08h39.29.786,Trial go no go,2020.2.10,Win32,60,,,,,,,,,,,,,,,space,1,0,14,14,38,1,E,space,0.3451,,
,,,,,,,,,,,,,,,,PUM14K,001,PUM14K,2024-02-26_08h39.29.786,Trial go no go,2020.2.10,Win32,60,,,,,,,,,,,,,,,space,1,0,15,15,31,1,L,space,0.3239,,
,,,,,,,,,,,,,,,,PUM14K,001,PUM14K,2024-02-26_08h39.29.786,Trial go no go,2020.2.10,Win32,60,,,,,,,,,,,,,,,space,1,0,16,16,21,1,R,space,0.26,,
,,,,,,,,,,,,,,,,PUM14K,001,PUM14K,2024-02-26_08h39.29.786,Trial go no go,2020.2.10,Win32,60,,,,,,,,,,,,,,,,1,0,17,17,9,1,X,none,,,
,,,,,,,,,,,,,,,,PUM14K,001,PUM14K,2024-02-26_08h39.29.786,Trial go no go,2020.2.10,Win32,60,,,,,,,,,,,,,,,space,1,0,18,18,45,1,A,space,0.2515,,
,,,,,,,,,,,,,,,,PUM14K,001,PUM14K,2024-02-26_08h39.29.786,Trial go no go,2020.2.10,Win32,60,,,,,,,,,,,,,,,space,1,0,19,19,1,1,E,space,0.2772,,
,,,,,,,,,,,,,,,,PUM14K,001,PUM14K,2024-02-26_08h39.29.786,Trial go no go,2020.2.10,Win32,60,,,,,,,,,,,,,,,space,1,0,20,20,20,1,E,space,0.3152,,
,,,,,,,,,,,,,,,,PUM14K,001,PUM14K,2024-02-26_08h39.29.786,Trial go no go,2020.2.10,Win32,60,,,,,,,,,,,,,,,space,1,0,21,21,6,1,I,space,0.3775,,
,,,,,,,,,,,,,,,,PUM14K,001,PUM14K,2024-02-26_08h39.29.786,Trial go no go,2020.2.10,Win32,60,,,,,,,,,,,,,,,space,1,0,22,22,10,1,H,space,0.3666,,
,,,,,,,,,,,,,,,,PUM14K,001,PUM14K,2024-02-26_08h39.29.786,Trial go no go,2020.2.10,Win32,60,,,,,,,,,,,,,,,space,1,0,23,23,48,1,K,space,0.3418,,
,,,,,,,,,,,,,,,,PUM14K,001,PUM14K,2024-02-26_08h39.29.786,Trial go no go,2020.2.10,Win32,60,,,,,,,,,,,,,,,space,1,0,24,24,42,1,Y,space,0.248,,
,,,,,,,,,,,,,,,,PUM14K,001,PUM14K,2024-02-26_08h39.29.786,Trial go no go,2020.2.10,Win32,60,,,,,,,,,,,,,,,space,1,0,25,25,0,1,W,space,0.3176,,
,,,,,,,,,,,,,,,,PUM14K,001,PUM14K,2024-02-26_08h39.29.786,Trial go no go,2020.2.10,Win32,60,,,,,,,,,,,,,,,space,1,0,26,26,22,1,T,space,0.3675,,
,,,,,,,,,,,,,,,,PUM14K,001,PUM14K,2024-02-26_08h39.29.786,Trial go no go,2020.2.10,Win32,60,,,,,,,,,,,,,,,space,0,0,27,27,29,1,X,none,0.3589,,
,,,,,,,,,,,,,,,,PUM14K,001,PUM14K,2024-02-26_08h39.29.786,Trial go no go,2020.2.10,Win32,60,,,,,,,,,,,,,,,space,1,0,28,28,37,1,W,space,0.3584,,
,,,,,,,,,,,,,,,,PUM14K,001,PUM14K,2024-02-26_08h39.29.786,Trial go no go,2020.2.10,Win32,60,,,,,,,,,,,,,,,,0,0,29,29,43,1,I,space,,,
,,,,,,,,,,,,,,,,PUM14K,001,PUM14K,2024-02-26_08h39.29.786,Trial go no go,2020.2.10,Win32,60,,,,,,,,,,,,,,,space,1,0,30,30,8,1,F,space,0.2835,,
,,,,,,,,,,,,,,,,PUM14K,001,PUM14K,2024-02-26_08h39.29.786,Trial go no go,2020.2.10,Win32,60,,,,,,,,,,,,,,,,1,0,31,31,14,1,X,none,,,
,,,,,,,,,,,,,,,,PUM14K,001,PUM14K,2024-02-26_08h39.29.786,Trial go no go,2020.2.10,Win32,60,,,,,,,,,,,,,,,,0,0,32,32,2,1,R,space,,,
,,,,,,,,,,,,,,,,PUM14K,001,PUM14K,2024-02-26_08h39.29.786,Trial go no go,2020.2.10,Win32,60,,,,,,,,,,,,,,,space,1,0,33,33,32,1,Z,space,0.2269,,
,,,,,,,,,,,,,,,,PUM14K,001,PUM14K,2024-02-26_08h39.29.786,Trial go no go,2020.2.10,Win32,60,,,,,,,,,,,,,,,space,1,0,34,34,47,1,H,space,0.3301,,
,,,,,,,,,,,,,,,,PUM14K,001,PUM14K,2024-02-26_08h39.29.786,Trial go no go,2020.2.10,Win32,60,,,,,,,,,,,,,,,space,1,0,35,35,30,1,K,space,0.3736,,
,,,,,,,,,,,,,,,,PUM14K,001,PUM14K,2024-02-26_08h39.29.786,Trial go no go,2020.2.10,Win32,60,,,,,,,,,,,,,,,space,1,0,36,36,13,1,Z,space,0.309,,
,,,,,,,,,,,,,,,,PUM14K,001,PUM14K,2024-02-26_08h39.29.786,Trial go no go,2020.2.10,Win32,60,,,,,,,,,,,,,,,space,0,0,37,37,4,1,X,none,0.324,,
,,,,,,,,,,,,,,,,PUM14K,001,PUM14K,2024-02-26_08h39.29.786,Trial go no go,2020.2.10,Win32,60,,,,,,,,,,,,,,,space,1,0,38,38,23,1,Y,space,0.3668,,
,,,,,,,,,,,,,,,,PUM14K,001,PUM14K,2024-02-26_08h39.29.786,Trial go no go,2020.2.10,Win32,60,,,,,,,,,,,,,,,,1,0,39,39,34,1,X,none,,,
,,,,,,,,,,,,,,,,PUM14K,001,PUM14K,2024-02-26_08h39.29.786,Trial go no go,2020.2.10,Win32,60,,,,,,,,,,,,,,,space,1,0,40,40,25,1,I,space,0.3158,,
,,,,,,,,,,,,,,,,PUM14K,001,PUM14K,2024-02-26_08h39.29.786,Trial go no go,2020.2.10,Win32,60,,,,,,,,,,,,,,,space,1,0,41,41,36,1,M,space,0.4566,,
,,,,,,,,,,,,,,,,PUM14K,001,PUM14K,2024-02-26_08h39.29.786,Trial go no go,2020.2.10,Win32,60,,,,,,,,,,,,,,,,0,0,42,42,18,1,W,space,,,
,,,,,,,,,,,,,,,,PUM14K,001,PUM14K,2024-02-26_08h39.29.786,Trial go no go,2020.2.10,Win32,60,,,,,,,,,,,,,,,space,1,0,43,43,16,1,N,space,0.2255,,
,,,,,,,,,,,,,,,,PUM14K,001,PUM14K,2024-02-26_08h39.29.786,Trial go no go,2020.2.10,Win32,60,,,,,,,,,,,,,,,,1,0,44,44,49,1,X,none,,,
,,,,,,,,,,,,,,,,PUM14K,001,PUM14K,2024-02-26_08h39.29.786,Trial go no go,2020.2.10,Win32,60,,,,,,,,,,,,,,,space,0,0,45,45,19,1,X,none,0.2592,,
,,,,,,,,,,,,,,,,PUM14K,001,PUM14K,2024-02-26_08h39.29.786,Trial go no go,2020.2.10,Win32,60,,,,,,,,,,,,,,,space,1,0,46,46,11,1,K,space,0.3485,,
,,,,,,,,,,,,,,,,PUM14K,001,PUM14K,2024-02-26_08h39.29.786,Trial go no go,2020.2.10,Win32,60,,,,,,,,,,,,,,,space,1,0,47,47,46,1,F,space,0.2822,,
,,,,,,,,,,,,,,,,PUM14K,001,PUM14K,2024-02-26_08h39.29.786,Trial go no go,2020.2.10,Win32,60,,,,,,,,,,,,,,,,1,0,48,48,24,1,X,none,,,
,,,,,,,,,,,,,,,,PUM14K,001,PUM14K,2024-02-26_08h39.29.786,Trial go no go,2020.2.10,Win32,60,,,,,,,,,,,,,,,space,1,0,49,49,15,1,V,space,0.175,,
,,,,,,,,,,,,,,,,PUM14K,001,PUM14K,2024-02-26_08h39.29.786,Trial go no go,2020.2.10,Win32,60,,,,,,,,,,,,,,,,,,,,,,,,,space,7.1825
