resp_Welcome.keys,resp_Welcome.rt,resp_Instr_Intro.keys,resp_Instr_Intro.rt,resp_Instr_Prac1.keys,resp_Instr_Prac1.rt,resp_trial_Prac1.keys,resp_trial_Prac1.corr,prac_trials.thisRepN,prac_trials.thisTrialN,prac_trials.thisN,prac_trials.thisIndex,prac_trials.ran,stimulus_prac1,corrAns_prac1,participant,session,indywidualny kod,date,expName,psychopyVersion,OS,frameRate,resp_trial_Prac1.rt,resp_Instr_Test1.keys,resp_Instr_Test1.rt,resp_trial_Test1.keys,resp_trial_Test1.corr,test1trial.thisRepN,test1trial.thisTrialN,test1trial.thisN,test1trial.thisIndex,test1trial.ran,stimulus_test1,corrAns_test1,resp_trial_Test1.rt,resp_Instr_Test2.keys,resp_Instr_Test2.rt,key_resp_Test2.keys,key_resp_Test2.corr,test2trial.thisRepN,test2trial.thisTrialN,test2trial.thisN,test2trial.thisIndex,test2trial.ran,stimulus_test2,corrAns_test2,key_resp_Test2.rt,resp_theEnd.keys,resp_theEnd.rt
space,34.8927,space,27.0177,space,10.6434,,1,0,0,0,9,1,V,none,PUM10K,001,PUM10K,2024-02-13_08h25.48.707,Trial go no go,2020.2.10,Win32,60,,,,,,,,,,,,,,,,,,,,,,,,,,,
,,,,,,space,1,0,1,1,11,1,X,space,PUM10K,001,PUM10K,2024-02-13_08h25.48.707,Trial go no go,2020.2.10,Win32,60,0.5813,,,,,,,,,,,,,,,,,,,,,,,,,,
,,,,,,space,1,0,2,2,3,1,X,space,PUM10K,001,PUM10K,2024-02-13_08h25.48.707,Trial go no go,2020.2.10,Win32,60,0.4577,,,,,,,,,,,,,,,,,,,,,,,,,,
,,,,,,space,1,0,3,3,7,1,X,space,PUM10K,001,PUM10K,2024-02-13_08h25.48.707,Trial go no go,2020.2.10,Win32,60,0.516,,,,,,,,,,,,,,,,,,,,,,,,,,
,,,,,,space,1,0,4,4,10,1,X,space,PUM10K,001,PUM10K,2024-02-13_08h25.48.707,Trial go no go,2020.2.10,Win32,60,0.4354,,,,,,,,,,,,,,,,,,,,,,,,,,
,,,,,,,1,0,5,5,14,1,K,none,PUM10K,001,PUM10K,2024-02-13_08h25.48.707,Trial go no go,2020.2.10,Win32,60,,,,,,,,,,,,,,,,,,,,,,,,,,,
,,,,,,space,1,0,6,6,2,1,X,space,PUM10K,001,PUM10K,2024-02-13_08h25.48.707,Trial go no go,2020.2.10,Win32,60,0.3996,,,,,,,,,,,,,,,,,,,,,,,,,,
,,,,,,space,1,0,7,7,12,1,X,space,PUM10K,001,PUM10K,2024-02-13_08h25.48.707,Trial go no go,2020.2.10,Win32,60,0.3831,,,,,,,,,,,,,,,,,,,,,,,,,,
,,,,,,space,1,0,8,8,1,1,X,space,PUM10K,001,PUM10K,2024-02-13_08h25.48.707,Trial go no go,2020.2.10,Win32,60,0.3762,,,,,,,,,,,,,,,,,,,,,,,,,,
,,,,,,space,0,0,9,9,4,1,W,none,PUM10K,001,PUM10K,2024-02-13_08h25.48.707,Trial go no go,2020.2.10,Win32,60,0.3906,,,,,,,,,,,,,,,,,,,,,,,,,,
,,,,,,space,1,0,10,10,6,1,X,space,PUM10K,001,PUM10K,2024-02-13_08h25.48.707,Trial go no go,2020.2.10,Win32,60,0.5325,,,,,,,,,,,,,,,,,,,,,,,,,,
,,,,,,space,1,0,11,11,5,1,X,space,PUM10K,001,PUM10K,2024-02-13_08h25.48.707,Trial go no go,2020.2.10,Win32,60,0.5181,,,,,,,,,,,,,,,,,,,,,,,,,,
,,,,,,space,1,0,12,12,13,1,X,space,PUM10K,001,PUM10K,2024-02-13_08h25.48.707,Trial go no go,2020.2.10,Win32,60,0.3611,,,,,,,,,,,,,,,,,,,,,,,,,,
,,,,,,space,1,0,13,13,8,1,X,space,PUM10K,001,PUM10K,2024-02-13_08h25.48.707,Trial go no go,2020.2.10,Win32,60,0.486,,,,,,,,,,,,,,,,,,,,,,,,,,
,,,,,,space,1,0,14,14,0,1,X,space,PUM10K,001,PUM10K,2024-02-13_08h25.48.707,Trial go no go,2020.2.10,Win32,60,0.4326,,,,,,,,,,,,,,,,,,,,,,,,,,
,,,,,,,,,,,,,,,PUM10K,001,PUM10K,2024-02-13_08h25.48.707,Trial go no go,2020.2.10,Win32,60,,space,7.9555,,0,0,0,0,8,1,X,space,,,,,,,,,,,,,,,
,,,,,,,,,,,,,,,PUM10K,001,PUM10K,2024-02-13_08h25.48.707,Trial go no go,2020.2.10,Win32,60,,,,space,1,0,1,1,11,1,X,space,0.392,,,,,,,,,,,,,,
,,,,,,,,,,,,,,,PUM10K,001,PUM10K,2024-02-13_08h25.48.707,Trial go no go,2020.2.10,Win32,60,,,,space,0,0,2,2,24,1,H,none,0.2754,,,,,,,,,,,,,,
,,,,,,,,,,,,,,,PUM10K,001,PUM10K,2024-02-13_08h25.48.707,Trial go no go,2020.2.10,Win32,60,,,,space,1,0,3,3,31,1,X,space,0.3163,,,,,,,,,,,,,,
,,,,,,,,,,,,,,,PUM10K,001,PUM10K,2024-02-13_08h25.48.707,Trial go no go,2020.2.10,Win32,60,,,,space,1,0,4,4,21,1,X,space,0.3994,,,,,,,,,,,,,,
,,,,,,,,,,,,,,,PUM10K,001,PUM10K,2024-02-13_08h25.48.707,Trial go no go,2020.2.10,Win32,60,,,,space,1,0,5,5,36,1,X,space,0.4581,,,,,,,,,,,,,,
,,,,,,,,,,,,,,,PUM10K,001,PUM10K,2024-02-13_08h25.48.707,Trial go no go,2020.2.10,Win32,60,,,,space,1,0,6,6,16,1,X,space,0.3015,,,,,,,,,,,,,,
,,,,,,,,,,,,,,,PUM10K,001,PUM10K,2024-02-13_08h25.48.707,Trial go no go,2020.2.10,Win32,60,,,,,1,0,7,7,19,1,K,none,,,,,,,,,,,,,,,
,,,,,,,,,,,,,,,PUM10K,001,PUM10K,2024-02-13_08h25.48.707,Trial go no go,2020.2.10,Win32,60,,,,,1,0,8,8,29,1,T,none,,,,,,,,,,,,,,,
,,,,,,,,,,,,,,,PUM10K,001,PUM10K,2024-02-13_08h25.48.707,Trial go no go,2020.2.10,Win32,60,,,,space,1,0,9,9,13,1,X,space,0.3748,,,,,,,,,,,,,,
,,,,,,,,,,,,,,,PUM10K,001,PUM10K,2024-02-13_08h25.48.707,Trial go no go,2020.2.10,Win32,60,,,,,1,0,10,10,39,1,M,none,,,,,,,,,,,,,,,
,,,,,,,,,,,,,,,PUM10K,001,PUM10K,2024-02-13_08h25.48.707,Trial go no go,2020.2.10,Win32,60,,,,space,1,0,11,11,43,1,X,space,0.319,,,,,,,,,,,,,,
,,,,,,,,,,,,,,,PUM10K,001,PUM10K,2024-02-13_08h25.48.707,Trial go no go,2020.2.10,Win32,60,,,,space,1,0,12,12,5,1,X,space,0.3651,,,,,,,,,,,,,,
,,,,,,,,,,,,,,,PUM10K,001,PUM10K,2024-02-13_08h25.48.707,Trial go no go,2020.2.10,Win32,60,,,,,1,0,13,13,14,1,Y,none,,,,,,,,,,,,,,,
,,,,,,,,,,,,,,,PUM10K,001,PUM10K,2024-02-13_08h25.48.707,Trial go no go,2020.2.10,Win32,60,,,,space,1,0,14,14,18,1,X,space,0.3581,,,,,,,,,,,,,,
,,,,,,,,,,,,,,,PUM10K,001,PUM10K,2024-02-13_08h25.48.707,Trial go no go,2020.2.10,Win32,60,,,,,1,0,15,15,44,1,F,none,,,,,,,,,,,,,,,
,,,,,,,,,,,,,,,PUM10K,001,PUM10K,2024-02-13_08h25.48.707,Trial go no go,2020.2.10,Win32,60,,,,space,1,0,16,16,35,1,X,space,0.2828,,,,,,,,,,,,,,
,,,,,,,,,,,,,,,PUM10K,001,PUM10K,2024-02-13_08h25.48.707,Trial go no go,2020.2.10,Win32,60,,,,space,1,0,17,17,25,1,X,space,0.4331,,,,,,,,,,,,,,
,,,,,,,,,,,,,,,PUM10K,001,PUM10K,2024-02-13_08h25.48.707,Trial go no go,2020.2.10,Win32,60,,,,space,1,0,18,18,1,1,X,space,0.3769,,,,,,,,,,,,,,
,,,,,,,,,,,,,,,PUM10K,001,PUM10K,2024-02-13_08h25.48.707,Trial go no go,2020.2.10,Win32,60,,,,space,1,0,19,19,42,1,X,space,0.3082,,,,,,,,,,,,,,
,,,,,,,,,,,,,,,PUM10K,001,PUM10K,2024-02-13_08h25.48.707,Trial go no go,2020.2.10,Win32,60,,,,space,1,0,20,20,32,1,X,space,0.2997,,,,,,,,,,,,,,
,,,,,,,,,,,,,,,PUM10K,001,PUM10K,2024-02-13_08h25.48.707,Trial go no go,2020.2.10,Win32,60,,,,space,1,0,21,21,12,1,X,space,0.3074,,,,,,,,,,,,,,
,,,,,,,,,,,,,,,PUM10K,001,PUM10K,2024-02-13_08h25.48.707,Trial go no go,2020.2.10,Win32,60,,,,space,1,0,22,22,47,1,X,space,0.3058,,,,,,,,,,,,,,
,,,,,,,,,,,,,,,PUM10K,001,PUM10K,2024-02-13_08h25.48.707,Trial go no go,2020.2.10,Win32,60,,,,space,1,0,23,23,6,1,X,space,0.2748,,,,,,,,,,,,,,
,,,,,,,,,,,,,,,PUM10K,001,PUM10K,2024-02-13_08h25.48.707,Trial go no go,2020.2.10,Win32,60,,,,space,1,0,24,24,20,1,X,space,0.2564,,,,,,,,,,,,,,
,,,,,,,,,,,,,,,PUM10K,001,PUM10K,2024-02-13_08h25.48.707,Trial go no go,2020.2.10,Win32,60,,,,space,1,0,25,25,45,1,X,space,0.3067,,,,,,,,,,,,,,
,,,,,,,,,,,,,,,PUM10K,001,PUM10K,2024-02-13_08h25.48.707,Trial go no go,2020.2.10,Win32,60,,,,space,1,0,26,26,26,1,X,space,0.3077,,,,,,,,,,,,,,
,,,,,,,,,,,,,,,PUM10K,001,PUM10K,2024-02-13_08h25.48.707,Trial go no go,2020.2.10,Win32,60,,,,space,1,0,27,27,41,1,X,space,0.2996,,,,,,,,,,,,,,
,,,,,,,,,,,,,,,PUM10K,001,PUM10K,2024-02-13_08h25.48.707,Trial go no go,2020.2.10,Win32,60,,,,space,1,0,28,28,38,1,X,space,0.3157,,,,,,,,,,,,,,
,,,,,,,,,,,,,,,PUM10K,001,PUM10K,2024-02-13_08h25.48.707,Trial go no go,2020.2.10,Win32,60,,,,space,1,0,29,29,27,1,X,space,0.302,,,,,,,,,,,,,,
,,,,,,,,,,,,,,,PUM10K,001,PUM10K,2024-02-13_08h25.48.707,Trial go no go,2020.2.10,Win32,60,,,,space,1,0,30,30,2,1,X,space,0.2997,,,,,,,,,,,,,,
,,,,,,,,,,,,,,,PUM10K,001,PUM10K,2024-02-13_08h25.48.707,Trial go no go,2020.2.10,Win32,60,,,,,1,0,31,31,49,1,E,none,,,,,,,,,,,,,,,
,,,,,,,,,,,,,,,PUM10K,001,PUM10K,2024-02-13_08h25.48.707,Trial go no go,2020.2.10,Win32,60,,,,space,1,0,32,32,40,1,X,space,0.3661,,,,,,,,,,,,,,
,,,,,,,,,,,,,,,PUM10K,001,PUM10K,2024-02-13_08h25.48.707,Trial go no go,2020.2.10,Win32,60,,,,space,1,0,33,33,48,1,X,space,0.3263,,,,,,,,,,,,,,
,,,,,,,,,,,,,,,PUM10K,001,PUM10K,2024-02-13_08h25.48.707,Trial go no go,2020.2.10,Win32,60,,,,space,1,0,34,34,17,1,X,space,0.352,,,,,,,,,,,,,,
,,,,,,,,,,,,,,,PUM10K,001,PUM10K,2024-02-13_08h25.48.707,Trial go no go,2020.2.10,Win32,60,,,,space,1,0,35,35,0,1,X,space,0.3187,,,,,,,,,,,,,,
,,,,,,,,,,,,,,,PUM10K,001,PUM10K,2024-02-13_08h25.48.707,Trial go no go,2020.2.10,Win32,60,,,,space,1,0,36,36,22,1,X,space,0.2999,,,,,,,,,,,,,,
,,,,,,,,,,,,,,,PUM10K,001,PUM10K,2024-02-13_08h25.48.707,Trial go no go,2020.2.10,Win32,60,,,,space,1,0,37,37,37,1,X,space,0.2659,,,,,,,,,,,,,,
,,,,,,,,,,,,,,,PUM10K,001,PUM10K,2024-02-13_08h25.48.707,Trial go no go,2020.2.10,Win32,60,,,,space,1,0,38,38,30,1,X,space,0.2992,,,,,,,,,,,,,,
,,,,,,,,,,,,,,,PUM10K,001,PUM10K,2024-02-13_08h25.48.707,Trial go no go,2020.2.10,Win32,60,,,,space,0,0,39,39,4,1,V,none,0.2829,,,,,,,,,,,,,,
,,,,,,,,,,,,,,,PUM10K,001,PUM10K,2024-02-13_08h25.48.707,Trial go no go,2020.2.10,Win32,60,,,,space,1,0,40,40,33,1,X,space,0.3145,,,,,,,,,,,,,,
,,,,,,,,,,,,,,,PUM10K,001,PUM10K,2024-02-13_08h25.48.707,Trial go no go,2020.2.10,Win32,60,,,,space,1,0,41,41,3,1,X,space,0.3292,,,,,,,,,,,,,,
,,,,,,,,,,,,,,,PUM10K,001,PUM10K,2024-02-13_08h25.48.707,Trial go no go,2020.2.10,Win32,60,,,,space,1,0,42,42,7,1,X,space,0.2918,,,,,,,,,,,,,,
,,,,,,,,,,,,,,,PUM10K,001,PUM10K,2024-02-13_08h25.48.707,Trial go no go,2020.2.10,Win32,60,,,,space,1,0,43,43,15,1,X,space,0.2746,,,,,,,,,,,,,,
,,,,,,,,,,,,,,,PUM10K,001,PUM10K,2024-02-13_08h25.48.707,Trial go no go,2020.2.10,Win32,60,,,,space,1,0,44,44,46,1,X,space,0.2561,,,,,,,,,,,,,,
,,,,,,,,,,,,,,,PUM10K,001,PUM10K,2024-02-13_08h25.48.707,Trial go no go,2020.2.10,Win32,60,,,,space,1,0,45,45,28,1,X,space,0.2991,,,,,,,,,,,,,,
,,,,,,,,,,,,,,,PUM10K,001,PUM10K,2024-02-13_08h25.48.707,Trial go no go,2020.2.10,Win32,60,,,,space,1,0,46,46,23,1,X,space,0.2487,,,,,,,,,,,,,,
,,,,,,,,,,,,,,,PUM10K,001,PUM10K,2024-02-13_08h25.48.707,Trial go no go,2020.2.10,Win32,60,,,,space,1,0,47,47,10,1,X,space,0.3013,,,,,,,,,,,,,,
,,,,,,,,,,,,,,,PUM10K,001,PUM10K,2024-02-13_08h25.48.707,Trial go no go,2020.2.10,Win32,60,,,,,1,0,48,48,9,1,W,none,,,,,,,,,,,,,,,
,,,,,,,,,,,,,,,PUM10K,001,PUM10K,2024-02-13_08h25.48.707,Trial go no go,2020.2.10,Win32,60,,,,,1,0,49,49,34,1,N,none,,,,,,,,,,,,,,,
,,,,,,,,,,,,,,,PUM10K,001,PUM10K,2024-02-13_08h25.48.707,Trial go no go,2020.2.10,Win32,60,,,,,,,,,,,,,,z,34.3156,,0,0,0,0,30,1,K,space,,,
,,,,,,,,,,,,,,,PUM10K,001,PUM10K,2024-02-13_08h25.48.707,Trial go no go,2020.2.10,Win32,60,,,,,,,,,,,,,,,,space,0,0,1,1,39,1,X,none,0.0808,,
,,,,,,,,,,,,,,,PUM10K,001,PUM10K,2024-02-13_08h25.48.707,Trial go no go,2020.2.10,Win32,60,,,,,,,,,,,,,,,,space,1,0,2,2,48,1,K,space,0.3814,,
,,,,,,,,,,,,,,,PUM10K,001,PUM10K,2024-02-13_08h25.48.707,Trial go no go,2020.2.10,Win32,60,,,,,,,,,,,,,,,,space,1,0,3,3,16,1,N,space,0.3008,,
,,,,,,,,,,,,,,,PUM10K,001,PUM10K,2024-02-13_08h25.48.707,Trial go no go,2020.2.10,Win32,60,,,,,,,,,,,,,,,,,1,0,4,4,24,1,X,none,,,
,,,,,,,,,,,,,,,PUM10K,001,PUM10K,2024-02-13_08h25.48.707,Trial go no go,2020.2.10,Win32,60,,,,,,,,,,,,,,,,space,1,0,5,5,8,1,F,space,0.3074,,
,,,,,,,,,,,,,,,PUM10K,001,PUM10K,2024-02-13_08h25.48.707,Trial go no go,2020.2.10,Win32,60,,,,,,,,,,,,,,,,,1,0,6,6,29,1,X,none,,,
,,,,,,,,,,,,,,,PUM10K,001,PUM10K,2024-02-13_08h25.48.707,Trial go no go,2020.2.10,Win32,60,,,,,,,,,,,,,,,,space,1,0,7,7,12,1,L,space,0.2944,,
,,,,,,,,,,,,,,,PUM10K,001,PUM10K,2024-02-13_08h25.48.707,Trial go no go,2020.2.10,Win32,60,,,,,,,,,,,,,,,,space,1,0,8,8,21,1,R,space,0.3813,,
,,,,,,,,,,,,,,,PUM10K,001,PUM10K,2024-02-13_08h25.48.707,Trial go no go,2020.2.10,Win32,60,,,,,,,,,,,,,,,,space,1,0,9,9,43,1,I,space,0.3664,,
,,,,,,,,,,,,,,,PUM10K,001,PUM10K,2024-02-13_08h25.48.707,Trial go no go,2020.2.10,Win32,60,,,,,,,,,,,,,,,,space,1,0,10,10,7,1,A,space,0.3115,,
,,,,,,,,,,,,,,,PUM10K,001,PUM10K,2024-02-13_08h25.48.707,Trial go no go,2020.2.10,Win32,60,,,,,,,,,,,,,,,,space,1,0,11,11,2,1,R,space,0.3079,,
,,,,,,,,,,,,,,,PUM10K,001,PUM10K,2024-02-13_08h25.48.707,Trial go no go,2020.2.10,Win32,60,,,,,,,,,,,,,,,,space,1,0,12,12,31,1,L,space,0.3475,,
,,,,,,,,,,,,,,,PUM10K,001,PUM10K,2024-02-13_08h25.48.707,Trial go no go,2020.2.10,Win32,60,,,,,,,,,,,,,,,,space,1,0,13,13,35,1,N,space,0.3399,,
,,,,,,,,,,,,,,,PUM10K,001,PUM10K,2024-02-13_08h25.48.707,Trial go no go,2020.2.10,Win32,60,,,,,,,,,,,,,,,,space,1,0,14,14,1,1,E,space,0.3006,,
,,,,,,,,,,,,,,,PUM10K,001,PUM10K,2024-02-13_08h25.48.707,Trial go no go,2020.2.10,Win32,60,,,,,,,,,,,,,,,,,1,0,15,15,44,1,X,none,,,
,,,,,,,,,,,,,,,PUM10K,001,PUM10K,2024-02-13_08h25.48.707,Trial go no go,2020.2.10,Win32,60,,,,,,,,,,,,,,,,space,1,0,16,16,6,1,I,space,0.3216,,
,,,,,,,,,,,,,,,PUM10K,001,PUM10K,2024-02-13_08h25.48.707,Trial go no go,2020.2.10,Win32,60,,,,,,,,,,,,,,,,,1,0,17,17,49,1,X,none,,,
,,,,,,,,,,,,,,,PUM10K,001,PUM10K,2024-02-13_08h25.48.707,Trial go no go,2020.2.10,Win32,60,,,,,,,,,,,,,,,,space,1,0,18,18,11,1,K,space,0.3221,,
,,,,,,,,,,,,,,,PUM10K,001,PUM10K,2024-02-13_08h25.48.707,Trial go no go,2020.2.10,Win32,60,,,,,,,,,,,,,,,,space,1,0,19,19,17,1,M,space,0.3581,,
,,,,,,,,,,,,,,,PUM10K,001,PUM10K,2024-02-13_08h25.48.707,Trial go no go,2020.2.10,Win32,60,,,,,,,,,,,,,,,,space,1,0,20,20,20,1,E,space,0.3004,,
,,,,,,,,,,,,,,,PUM10K,001,PUM10K,2024-02-13_08h25.48.707,Trial go no go,2020.2.10,Win32,60,,,,,,,,,,,,,,,,,1,0,21,21,4,1,X,none,,,
,,,,,,,,,,,,,,,PUM10K,001,PUM10K,2024-02-13_08h25.48.707,Trial go no go,2020.2.10,Win32,60,,,,,,,,,,,,,,,,space,1,0,22,22,15,1,V,space,0.3551,,
,,,,,,,,,,,,,,,PUM10K,001,PUM10K,2024-02-13_08h25.48.707,Trial go no go,2020.2.10,Win32,60,,,,,,,,,,,,,,,,space,1,0,23,23,37,1,W,space,0.3573,,
,,,,,,,,,,,,,,,PUM10K,001,PUM10K,2024-02-13_08h25.48.707,Trial go no go,2020.2.10,Win32,60,,,,,,,,,,,,,,,,space,1,0,24,24,41,1,T,space,0.3609,,
,,,,,,,,,,,,,,,PUM10K,001,PUM10K,2024-02-13_08h25.48.707,Trial go no go,2020.2.10,Win32,60,,,,,,,,,,,,,,,,space,1,0,25,25,13,1,Z,space,0.3605,,
,,,,,,,,,,,,,,,PUM10K,001,PUM10K,2024-02-13_08h25.48.707,Trial go no go,2020.2.10,Win32,60,,,,,,,,,,,,,,,,,1,0,26,26,9,1,X,none,,,
,,,,,,,,,,,,,,,PUM10K,001,PUM10K,2024-02-13_08h25.48.707,Trial go no go,2020.2.10,Win32,60,,,,,,,,,,,,,,,,space,1,0,27,27,33,1,V,space,0.5126,,
,,,,,,,,,,,,,,,PUM10K,001,PUM10K,2024-02-13_08h25.48.707,Trial go no go,2020.2.10,Win32,60,,,,,,,,,,,,,,,,,1,0,28,28,34,1,X,none,,,
,,,,,,,,,,,,,,,PUM10K,001,PUM10K,2024-02-13_08h25.48.707,Trial go no go,2020.2.10,Win32,60,,,,,,,,,,,,,,,,space,1,0,29,29,27,1,F,space,0.3409,,
,,,,,,,,,,,,,,,PUM10K,001,PUM10K,2024-02-13_08h25.48.707,Trial go no go,2020.2.10,Win32,60,,,,,,,,,,,,,,,,,1,0,30,30,19,1,X,none,,,
,,,,,,,,,,,,,,,PUM10K,001,PUM10K,2024-02-13_08h25.48.707,Trial go no go,2020.2.10,Win32,60,,,,,,,,,,,,,,,,space,1,0,31,31,42,1,Y,space,0.4012,,
,,,,,,,,,,,,,,,PUM10K,001,PUM10K,2024-02-13_08h25.48.707,Trial go no go,2020.2.10,Win32,60,,,,,,,,,,,,,,,,space,1,0,32,32,10,1,H,space,0.41,,
,,,,,,,,,,,,,,,PUM10K,001,PUM10K,2024-02-13_08h25.48.707,Trial go no go,2020.2.10,Win32,60,,,,,,,,,,,,,,,,space,1,0,33,33,5,1,Y,space,0.4418,,
,,,,,,,,,,,,,,,PUM10K,001,PUM10K,2024-02-13_08h25.48.707,Trial go no go,2020.2.10,Win32,60,,,,,,,,,,,,,,,,space,1,0,34,34,47,1,H,space,0.372,,
,,,,,,,,,,,,,,,PUM10K,001,PUM10K,2024-02-13_08h25.48.707,Trial go no go,2020.2.10,Win32,60,,,,,,,,,,,,,,,,space,1,0,35,35,23,1,Y,space,0.3158,,
,,,,,,,,,,,,,,,PUM10K,001,PUM10K,2024-02-13_08h25.48.707,Trial go no go,2020.2.10,Win32,60,,,,,,,,,,,,,,,,space,1,0,36,36,32,1,Z,space,0.2992,,
,,,,,,,,,,,,,,,PUM10K,001,PUM10K,2024-02-13_08h25.48.707,Trial go no go,2020.2.10,Win32,60,,,,,,,,,,,,,,,,space,1,0,37,37,40,1,R,space,0.511,,
,,,,,,,,,,,,,,,PUM10K,001,PUM10K,2024-02-13_08h25.48.707,Trial go no go,2020.2.10,Win32,60,,,,,,,,,,,,,,,,space,1,0,38,38,22,1,T,space,0.3248,,
,,,,,,,,,,,,,,,PUM10K,001,PUM10K,2024-02-13_08h25.48.707,Trial go no go,2020.2.10,Win32,60,,,,,,,,,,,,,,,,space,1,0,39,39,26,1,A,space,0.3336,,
,,,,,,,,,,,,,,,PUM10K,001,PUM10K,2024-02-13_08h25.48.707,Trial go no go,2020.2.10,Win32,60,,,,,,,,,,,,,,,,space,1,0,40,40,46,1,F,space,0.344,,
,,,,,,,,,,,,,,,PUM10K,001,PUM10K,2024-02-13_08h25.48.707,Trial go no go,2020.2.10,Win32,60,,,,,,,,,,,,,,,,,1,0,41,41,14,1,X,none,,,
,,,,,,,,,,,,,,,PUM10K,001,PUM10K,2024-02-13_08h25.48.707,Trial go no go,2020.2.10,Win32,60,,,,,,,,,,,,,,,,space,1,0,42,42,0,1,W,space,0.3393,,
,,,,,,,,,,,,,,,PUM10K,001,PUM10K,2024-02-13_08h25.48.707,Trial go no go,2020.2.10,Win32,60,,,,,,,,,,,,,,,,space,1,0,43,43,36,1,M,space,0.4001,,
,,,,,,,,,,,,,,,PUM10K,001,PUM10K,2024-02-13_08h25.48.707,Trial go no go,2020.2.10,Win32,60,,,,,,,,,,,,,,,,space,1,0,44,44,28,1,H,space,0.3247,,
,,,,,,,,,,,,,,,PUM10K,001,PUM10K,2024-02-13_08h25.48.707,Trial go no go,2020.2.10,Win32,60,,,,,,,,,,,,,,,,space,1,0,45,45,3,1,T,space,0.3185,,
,,,,,,,,,,,,,,,PUM10K,001,PUM10K,2024-02-13_08h25.48.707,Trial go no go,2020.2.10,Win32,60,,,,,,,,,,,,,,,,space,1,0,46,46,25,1,I,space,0.331,,
,,,,,,,,,,,,,,,PUM10K,001,PUM10K,2024-02-13_08h25.48.707,Trial go no go,2020.2.10,Win32,60,,,,,,,,,,,,,,,,space,1,0,47,47,45,1,A,space,0.2899,,
,,,,,,,,,,,,,,,PUM10K,001,PUM10K,2024-02-13_08h25.48.707,Trial go no go,2020.2.10,Win32,60,,,,,,,,,,,,,,,,space,1,0,48,48,18,1,W,space,0.2909,,
,,,,,,,,,,,,,,,PUM10K,001,PUM10K,2024-02-13_08h25.48.707,Trial go no go,2020.2.10,Win32,60,,,,,,,,,,,,,,,,space,1,0,49,49,38,1,E,space,0.3071,,
,,,,,,,,,,,,,,,PUM10K,001,PUM10K,2024-02-13_08h25.48.707,Trial go no go,2020.2.10,Win32,60,,,,,,,,,,,,,,,,,,,,,,,,,,space,34.374
