resp_Welcome.keys,resp_Welcome.rt,resp_Instr_Intro.keys,resp_Instr_Intro.rt,resp_Instr_Prac1.keys,resp_Instr_Prac1.rt,resp_trial_Prac1.keys,resp_trial_Prac1.corr,prac_trials.thisRepN,prac_trials.thisTrialN,prac_trials.thisN,prac_trials.thisIndex,prac_trials.ran,stimulus_prac1,corrAns_prac1,participant,session,indywidualny kod,date,expName,psychopyVersion,OS,frameRate,resp_trial_Prac1.rt,resp_Instr_Test1.keys,resp_Instr_Test1.rt,resp_trial_Test1.keys,resp_trial_Test1.corr,resp_trial_Test1.rt,test1trial.thisRepN,test1trial.thisTrialN,test1trial.thisN,test1trial.thisIndex,test1trial.ran,stimulus_test1,corrAns_test1,resp_Instr_Test2.keys,resp_Instr_Test2.rt,key_resp_Test2.keys,key_resp_Test2.corr,key_resp_Test2.rt,test2trial.thisRepN,test2trial.thisTrialN,test2trial.thisN,test2trial.thisIndex,test2trial.ran,stimulus_test2,corrAns_test2,resp_theEnd.keys,resp_theEnd.rt
space,12.2618,space,13.5816,space,10.384,,1,0,0,0,4,1,W,none,PUM28B,001,PUM28B,2024-01-08_13h38.48.193,Trial go no go,2020.2.10,Win32,60,,,,,,,,,,,,,,,,,,,,,,,,,,,
,,,,,,space,1,0,1,1,12,1,X,space,PUM28B,001,PUM28B,2024-01-08_13h38.48.193,Trial go no go,2020.2.10,Win32,60,0.6336,,,,,,,,,,,,,,,,,,,,,,,,,,
,,,,,,space,1,0,2,2,2,1,X,space,PUM28B,001,PUM28B,2024-01-08_13h38.48.193,Trial go no go,2020.2.10,Win32,60,0.3916,,,,,,,,,,,,,,,,,,,,,,,,,,
,,,,,,space,1,0,3,3,13,1,X,space,PUM28B,001,PUM28B,2024-01-08_13h38.48.193,Trial go no go,2020.2.10,Win32,60,0.377,,,,,,,,,,,,,,,,,,,,,,,,,,
,,,,,,space,1,0,4,4,6,1,X,space,PUM28B,001,PUM28B,2024-01-08_13h38.48.193,Trial go no go,2020.2.10,Win32,60,0.4266,,,,,,,,,,,,,,,,,,,,,,,,,,
,,,,,,space,1,0,5,5,10,1,X,space,PUM28B,001,PUM28B,2024-01-08_13h38.48.193,Trial go no go,2020.2.10,Win32,60,0.4436,,,,,,,,,,,,,,,,,,,,,,,,,,
,,,,,,space,1,0,6,6,0,1,X,space,PUM28B,001,PUM28B,2024-01-08_13h38.48.193,Trial go no go,2020.2.10,Win32,60,0.4611,,,,,,,,,,,,,,,,,,,,,,,,,,
,,,,,,,1,0,7,7,9,1,V,none,PUM28B,001,PUM28B,2024-01-08_13h38.48.193,Trial go no go,2020.2.10,Win32,60,,,,,,,,,,,,,,,,,,,,,,,,,,,
,,,,,,space,1,0,8,8,1,1,X,space,PUM28B,001,PUM28B,2024-01-08_13h38.48.193,Trial go no go,2020.2.10,Win32,60,0.4674,,,,,,,,,,,,,,,,,,,,,,,,,,
,,,,,,space,1,0,9,9,5,1,X,space,PUM28B,001,PUM28B,2024-01-08_13h38.48.193,Trial go no go,2020.2.10,Win32,60,0.3536,,,,,,,,,,,,,,,,,,,,,,,,,,
,,,,,,space,1,0,10,10,8,1,X,space,PUM28B,001,PUM28B,2024-01-08_13h38.48.193,Trial go no go,2020.2.10,Win32,60,0.5177,,,,,,,,,,,,,,,,,,,,,,,,,,
,,,,,,,1,0,11,11,14,1,K,none,PUM28B,001,PUM28B,2024-01-08_13h38.48.193,Trial go no go,2020.2.10,Win32,60,,,,,,,,,,,,,,,,,,,,,,,,,,,
,,,,,,space,1,0,12,12,11,1,X,space,PUM28B,001,PUM28B,2024-01-08_13h38.48.193,Trial go no go,2020.2.10,Win32,60,0.3734,,,,,,,,,,,,,,,,,,,,,,,,,,
,,,,,,space,1,0,13,13,7,1,X,space,PUM28B,001,PUM28B,2024-01-08_13h38.48.193,Trial go no go,2020.2.10,Win32,60,0.3922,,,,,,,,,,,,,,,,,,,,,,,,,,
,,,,,,space,1,0,14,14,3,1,X,space,PUM28B,001,PUM28B,2024-01-08_13h38.48.193,Trial go no go,2020.2.10,Win32,60,0.3606,,,,,,,,,,,,,,,,,,,,,,,,,,
,,,,,,,,,,,,,,,PUM28B,001,PUM28B,2024-01-08_13h38.48.193,Trial go no go,2020.2.10,Win32,60,,space,6.8913,space,1,0.4337,0,0,0,42,1,X,space,,,,,,,,,,,,,,
,,,,,,,,,,,,,,,PUM28B,001,PUM28B,2024-01-08_13h38.48.193,Trial go no go,2020.2.10,Win32,60,,,,space,1,0.5172,0,1,1,3,1,X,space,,,,,,,,,,,,,,
,,,,,,,,,,,,,,,PUM28B,001,PUM28B,2024-01-08_13h38.48.193,Trial go no go,2020.2.10,Win32,60,,,,space,1,0.3003,0,2,2,43,1,X,space,,,,,,,,,,,,,,
,,,,,,,,,,,,,,,PUM28B,001,PUM28B,2024-01-08_13h38.48.193,Trial go no go,2020.2.10,Win32,60,,,,space,1,0.3073,0,3,3,2,1,X,space,,,,,,,,,,,,,,
,,,,,,,,,,,,,,,PUM28B,001,PUM28B,2024-01-08_13h38.48.193,Trial go no go,2020.2.10,Win32,60,,,,space,1,0.3171,0,4,4,21,1,X,space,,,,,,,,,,,,,,
,,,,,,,,,,,,,,,PUM28B,001,PUM28B,2024-01-08_13h38.48.193,Trial go no go,2020.2.10,Win32,60,,,,,1,,0,5,5,34,1,N,none,,,,,,,,,,,,,,
,,,,,,,,,,,,,,,PUM28B,001,PUM28B,2024-01-08_13h38.48.193,Trial go no go,2020.2.10,Win32,60,,,,,1,,0,6,6,19,1,K,none,,,,,,,,,,,,,,
,,,,,,,,,,,,,,,PUM28B,001,PUM28B,2024-01-08_13h38.48.193,Trial go no go,2020.2.10,Win32,60,,,,space,1,0.3033,0,7,7,46,1,X,space,,,,,,,,,,,,,,
,,,,,,,,,,,,,,,PUM28B,001,PUM28B,2024-01-08_13h38.48.193,Trial go no go,2020.2.10,Win32,60,,,,space,1,0.3104,0,8,8,26,1,X,space,,,,,,,,,,,,,,
,,,,,,,,,,,,,,,PUM28B,001,PUM28B,2024-01-08_13h38.48.193,Trial go no go,2020.2.10,Win32,60,,,,space,1,0.3172,0,9,9,45,1,X,space,,,,,,,,,,,,,,
,,,,,,,,,,,,,,,PUM28B,001,PUM28B,2024-01-08_13h38.48.193,Trial go no go,2020.2.10,Win32,60,,,,space,1,0.3086,0,10,10,25,1,X,space,,,,,,,,,,,,,,
,,,,,,,,,,,,,,,PUM28B,001,PUM28B,2024-01-08_13h38.48.193,Trial go no go,2020.2.10,Win32,60,,,,space,1,0.2999,0,11,11,20,1,X,space,,,,,,,,,,,,,,
,,,,,,,,,,,,,,,PUM28B,001,PUM28B,2024-01-08_13h38.48.193,Trial go no go,2020.2.10,Win32,60,,,,space,1,0.2745,0,12,12,15,1,X,space,,,,,,,,,,,,,,
,,,,,,,,,,,,,,,PUM28B,001,PUM28B,2024-01-08_13h38.48.193,Trial go no go,2020.2.10,Win32,60,,,,space,1,0.3003,0,13,13,16,1,X,space,,,,,,,,,,,,,,
,,,,,,,,,,,,,,,PUM28B,001,PUM28B,2024-01-08_13h38.48.193,Trial go no go,2020.2.10,Win32,60,,,,space,0,0.2998,0,14,14,9,1,W,none,,,,,,,,,,,,,,
,,,,,,,,,,,,,,,PUM28B,001,PUM28B,2024-01-08_13h38.48.193,Trial go no go,2020.2.10,Win32,60,,,,,1,,0,15,15,24,1,H,none,,,,,,,,,,,,,,
,,,,,,,,,,,,,,,PUM28B,001,PUM28B,2024-01-08_13h38.48.193,Trial go no go,2020.2.10,Win32,60,,,,space,1,0.417,0,16,16,35,1,X,space,,,,,,,,,,,,,,
,,,,,,,,,,,,,,,PUM28B,001,PUM28B,2024-01-08_13h38.48.193,Trial go no go,2020.2.10,Win32,60,,,,space,1,0.5027,0,17,17,1,1,X,space,,,,,,,,,,,,,,
,,,,,,,,,,,,,,,PUM28B,001,PUM28B,2024-01-08_13h38.48.193,Trial go no go,2020.2.10,Win32,60,,,,space,1,0.4618,0,18,18,12,1,X,space,,,,,,,,,,,,,,
,,,,,,,,,,,,,,,PUM28B,001,PUM28B,2024-01-08_13h38.48.193,Trial go no go,2020.2.10,Win32,60,,,,space,1,0.3561,0,19,19,0,1,X,space,,,,,,,,,,,,,,
,,,,,,,,,,,,,,,PUM28B,001,PUM28B,2024-01-08_13h38.48.193,Trial go no go,2020.2.10,Win32,60,,,,,1,,0,20,20,44,1,F,none,,,,,,,,,,,,,,
,,,,,,,,,,,,,,,PUM28B,001,PUM28B,2024-01-08_13h38.48.193,Trial go no go,2020.2.10,Win32,60,,,,space,1,0.4836,0,21,21,48,1,X,space,,,,,,,,,,,,,,
,,,,,,,,,,,,,,,PUM28B,001,PUM28B,2024-01-08_13h38.48.193,Trial go no go,2020.2.10,Win32,60,,,,space,1,0.3451,0,22,22,30,1,X,space,,,,,,,,,,,,,,
,,,,,,,,,,,,,,,PUM28B,001,PUM28B,2024-01-08_13h38.48.193,Trial go no go,2020.2.10,Win32,60,,,,,1,,0,23,23,29,1,T,none,,,,,,,,,,,,,,
,,,,,,,,,,,,,,,PUM28B,001,PUM28B,2024-01-08_13h38.48.193,Trial go no go,2020.2.10,Win32,60,,,,space,1,0.3111,0,24,24,22,1,X,space,,,,,,,,,,,,,,
,,,,,,,,,,,,,,,PUM28B,001,PUM28B,2024-01-08_13h38.48.193,Trial go no go,2020.2.10,Win32,60,,,,space,1,0.3671,0,25,25,23,1,X,space,,,,,,,,,,,,,,
,,,,,,,,,,,,,,,PUM28B,001,PUM28B,2024-01-08_13h38.48.193,Trial go no go,2020.2.10,Win32,60,,,,space,1,0.534,0,26,26,17,1,X,space,,,,,,,,,,,,,,
,,,,,,,,,,,,,,,PUM28B,001,PUM28B,2024-01-08_13h38.48.193,Trial go no go,2020.2.10,Win32,60,,,,,1,,0,27,27,49,1,E,none,,,,,,,,,,,,,,
,,,,,,,,,,,,,,,PUM28B,001,PUM28B,2024-01-08_13h38.48.193,Trial go no go,2020.2.10,Win32,60,,,,space,1,0.3549,0,28,28,13,1,X,space,,,,,,,,,,,,,,
,,,,,,,,,,,,,,,PUM28B,001,PUM28B,2024-01-08_13h38.48.193,Trial go no go,2020.2.10,Win32,60,,,,space,1,0.3779,0,29,29,40,1,X,space,,,,,,,,,,,,,,
,,,,,,,,,,,,,,,PUM28B,001,PUM28B,2024-01-08_13h38.48.193,Trial go no go,2020.2.10,Win32,60,,,,space,1,0.3378,0,30,30,8,1,X,space,,,,,,,,,,,,,,
,,,,,,,,,,,,,,,PUM28B,001,PUM28B,2024-01-08_13h38.48.193,Trial go no go,2020.2.10,Win32,60,,,,space,1,0.3167,0,31,31,18,1,X,space,,,,,,,,,,,,,,
,,,,,,,,,,,,,,,PUM28B,001,PUM28B,2024-01-08_13h38.48.193,Trial go no go,2020.2.10,Win32,60,,,,space,1,0.3358,0,32,32,37,1,X,space,,,,,,,,,,,,,,
,,,,,,,,,,,,,,,PUM28B,001,PUM28B,2024-01-08_13h38.48.193,Trial go no go,2020.2.10,Win32,60,,,,space,1,0.342,0,33,33,6,1,X,space,,,,,,,,,,,,,,
,,,,,,,,,,,,,,,PUM28B,001,PUM28B,2024-01-08_13h38.48.193,Trial go no go,2020.2.10,Win32,60,,,,space,1,0.3024,0,34,34,7,1,X,space,,,,,,,,,,,,,,
,,,,,,,,,,,,,,,PUM28B,001,PUM28B,2024-01-08_13h38.48.193,Trial go no go,2020.2.10,Win32,60,,,,space,1,0.3735,0,35,35,36,1,X,space,,,,,,,,,,,,,,
,,,,,,,,,,,,,,,PUM28B,001,PUM28B,2024-01-08_13h38.48.193,Trial go no go,2020.2.10,Win32,60,,,,space,1,0.3001,0,36,36,27,1,X,space,,,,,,,,,,,,,,
,,,,,,,,,,,,,,,PUM28B,001,PUM28B,2024-01-08_13h38.48.193,Trial go no go,2020.2.10,Win32,60,,,,,1,,0,37,37,39,1,M,none,,,,,,,,,,,,,,
,,,,,,,,,,,,,,,PUM28B,001,PUM28B,2024-01-08_13h38.48.193,Trial go no go,2020.2.10,Win32,60,,,,,1,,0,38,38,14,1,Y,none,,,,,,,,,,,,,,
,,,,,,,,,,,,,,,PUM28B,001,PUM28B,2024-01-08_13h38.48.193,Trial go no go,2020.2.10,Win32,60,,,,space,1,0.2885,0,39,39,32,1,X,space,,,,,,,,,,,,,,
,,,,,,,,,,,,,,,PUM28B,001,PUM28B,2024-01-08_13h38.48.193,Trial go no go,2020.2.10,Win32,60,,,,space,0,0.3598,0,40,40,4,1,V,none,,,,,,,,,,,,,,
,,,,,,,,,,,,,,,PUM28B,001,PUM28B,2024-01-08_13h38.48.193,Trial go no go,2020.2.10,Win32,60,,,,space,1,0.3835,0,41,41,41,1,X,space,,,,,,,,,,,,,,
,,,,,,,,,,,,,,,PUM28B,001,PUM28B,2024-01-08_13h38.48.193,Trial go no go,2020.2.10,Win32,60,,,,space,1,0.3738,0,42,42,33,1,X,space,,,,,,,,,,,,,,
,,,,,,,,,,,,,,,PUM28B,001,PUM28B,2024-01-08_13h38.48.193,Trial go no go,2020.2.10,Win32,60,,,,space,1,0.3187,0,43,43,10,1,X,space,,,,,,,,,,,,,,
,,,,,,,,,,,,,,,PUM28B,001,PUM28B,2024-01-08_13h38.48.193,Trial go no go,2020.2.10,Win32,60,,,,space,1,0.3078,0,44,44,31,1,X,space,,,,,,,,,,,,,,
,,,,,,,,,,,,,,,PUM28B,001,PUM28B,2024-01-08_13h38.48.193,Trial go no go,2020.2.10,Win32,60,,,,space,1,0.3337,0,45,45,47,1,X,space,,,,,,,,,,,,,,
,,,,,,,,,,,,,,,PUM28B,001,PUM28B,2024-01-08_13h38.48.193,Trial go no go,2020.2.10,Win32,60,,,,space,1,0.3215,0,46,46,5,1,X,space,,,,,,,,,,,,,,
,,,,,,,,,,,,,,,PUM28B,001,PUM28B,2024-01-08_13h38.48.193,Trial go no go,2020.2.10,Win32,60,,,,space,1,0.3171,0,47,47,28,1,X,space,,,,,,,,,,,,,,
,,,,,,,,,,,,,,,PUM28B,001,PUM28B,2024-01-08_13h38.48.193,Trial go no go,2020.2.10,Win32,60,,,,space,1,0.32,0,48,48,38,1,X,space,,,,,,,,,,,,,,
,,,,,,,,,,,,,,,PUM28B,001,PUM28B,2024-01-08_13h38.48.193,Trial go no go,2020.2.10,Win32,60,,,,space,1,0.3434,0,49,49,11,1,X,space,,,,,,,,,,,,,,
,,,,,,,,,,,,,,,PUM28B,001,PUM28B,2024-01-08_13h38.48.193,Trial go no go,2020.2.10,Win32,60,,,,,,,,,,,,,,z,19.6143,space,1,0.9533,0,0,0,11,1,K,space,,
,,,,,,,,,,,,,,,PUM28B,001,PUM28B,2024-01-08_13h38.48.193,Trial go no go,2020.2.10,Win32,60,,,,,,,,,,,,,,,,,1,,0,1,1,34,1,X,none,,
,,,,,,,,,,,,,,,PUM28B,001,PUM28B,2024-01-08_13h38.48.193,Trial go no go,2020.2.10,Win32,60,,,,,,,,,,,,,,,,space,1,0.3433,0,2,2,17,1,M,space,,
,,,,,,,,,,,,,,,PUM28B,001,PUM28B,2024-01-08_13h38.48.193,Trial go no go,2020.2.10,Win32,60,,,,,,,,,,,,,,,,space,1,0.3344,0,3,3,36,1,M,space,,
,,,,,,,,,,,,,,,PUM28B,001,PUM28B,2024-01-08_13h38.48.193,Trial go no go,2020.2.10,Win32,60,,,,,,,,,,,,,,,,space,1,0.3895,0,4,4,13,1,Z,space,,
,,,,,,,,,,,,,,,PUM28B,001,PUM28B,2024-01-08_13h38.48.193,Trial go no go,2020.2.10,Win32,60,,,,,,,,,,,,,,,,space,1,0.3836,0,5,5,25,1,I,space,,
,,,,,,,,,,,,,,,PUM28B,001,PUM28B,2024-01-08_13h38.48.193,Trial go no go,2020.2.10,Win32,60,,,,,,,,,,,,,,,,space,1,0.3554,0,6,6,31,1,L,space,,
,,,,,,,,,,,,,,,PUM28B,001,PUM28B,2024-01-08_13h38.48.193,Trial go no go,2020.2.10,Win32,60,,,,,,,,,,,,,,,,space,0,0.3001,0,7,7,9,1,X,none,,
,,,,,,,,,,,,,,,PUM28B,001,PUM28B,2024-01-08_13h38.48.193,Trial go no go,2020.2.10,Win32,60,,,,,,,,,,,,,,,,space,1,0.2735,0,8,8,18,1,W,space,,
,,,,,,,,,,,,,,,PUM28B,001,PUM28B,2024-01-08_13h38.48.193,Trial go no go,2020.2.10,Win32,60,,,,,,,,,,,,,,,,space,1,0.3451,0,9,9,0,1,W,space,,
,,,,,,,,,,,,,,,PUM28B,001,PUM28B,2024-01-08_13h38.48.193,Trial go no go,2020.2.10,Win32,60,,,,,,,,,,,,,,,,space,1,0.3034,0,10,10,10,1,H,space,,
,,,,,,,,,,,,,,,PUM28B,001,PUM28B,2024-01-08_13h38.48.193,Trial go no go,2020.2.10,Win32,60,,,,,,,,,,,,,,,,,1,,0,11,11,39,1,X,none,,
,,,,,,,,,,,,,,,PUM28B,001,PUM28B,2024-01-08_13h38.48.193,Trial go no go,2020.2.10,Win32,60,,,,,,,,,,,,,,,,space,1,0.2672,0,12,12,5,1,Y,space,,
,,,,,,,,,,,,,,,PUM28B,001,PUM28B,2024-01-08_13h38.48.193,Trial go no go,2020.2.10,Win32,60,,,,,,,,,,,,,,,,space,1,0.2604,0,13,13,32,1,Z,space,,
,,,,,,,,,,,,,,,PUM28B,001,PUM28B,2024-01-08_13h38.48.193,Trial go no go,2020.2.10,Win32,60,,,,,,,,,,,,,,,,space,0,0.2834,0,14,14,19,1,X,none,,
,,,,,,,,,,,,,,,PUM28B,001,PUM28B,2024-01-08_13h38.48.193,Trial go no go,2020.2.10,Win32,60,,,,,,,,,,,,,,,,space,1,0.2584,0,15,15,48,1,K,space,,
,,,,,,,,,,,,,,,PUM28B,001,PUM28B,2024-01-08_13h38.48.193,Trial go no go,2020.2.10,Win32,60,,,,,,,,,,,,,,,,,1,,0,16,16,24,1,X,none,,
,,,,,,,,,,,,,,,PUM28B,001,PUM28B,2024-01-08_13h38.48.193,Trial go no go,2020.2.10,Win32,60,,,,,,,,,,,,,,,,space,1,0.3532,0,17,17,43,1,I,space,,
,,,,,,,,,,,,,,,PUM28B,001,PUM28B,2024-01-08_13h38.48.193,Trial go no go,2020.2.10,Win32,60,,,,,,,,,,,,,,,,space,1,0.3279,0,18,18,21,1,R,space,,
,,,,,,,,,,,,,,,PUM28B,001,PUM28B,2024-01-08_13h38.48.193,Trial go no go,2020.2.10,Win32,60,,,,,,,,,,,,,,,,space,1,0.3348,0,19,19,33,1,V,space,,
,,,,,,,,,,,,,,,PUM28B,001,PUM28B,2024-01-08_13h38.48.193,Trial go no go,2020.2.10,Win32,60,,,,,,,,,,,,,,,,space,1,0.3261,0,20,20,47,1,H,space,,
,,,,,,,,,,,,,,,PUM28B,001,PUM28B,2024-01-08_13h38.48.193,Trial go no go,2020.2.10,Win32,60,,,,,,,,,,,,,,,,,1,,0,21,21,44,1,X,none,,
,,,,,,,,,,,,,,,PUM28B,001,PUM28B,2024-01-08_13h38.48.193,Trial go no go,2020.2.10,Win32,60,,,,,,,,,,,,,,,,space,1,0.3881,0,22,22,41,1,T,space,,
,,,,,,,,,,,,,,,PUM28B,001,PUM28B,2024-01-08_13h38.48.193,Trial go no go,2020.2.10,Win32,60,,,,,,,,,,,,,,,,space,1,0.4911,0,23,23,23,1,Y,space,,
,,,,,,,,,,,,,,,PUM28B,001,PUM28B,2024-01-08_13h38.48.193,Trial go no go,2020.2.10,Win32,60,,,,,,,,,,,,,,,,space,1,0.386,0,24,24,38,1,E,space,,
,,,,,,,,,,,,,,,PUM28B,001,PUM28B,2024-01-08_13h38.48.193,Trial go no go,2020.2.10,Win32,60,,,,,,,,,,,,,,,,,1,,0,25,25,4,1,X,none,,
,,,,,,,,,,,,,,,PUM28B,001,PUM28B,2024-01-08_13h38.48.193,Trial go no go,2020.2.10,Win32,60,,,,,,,,,,,,,,,,space,1,0.3521,0,26,26,3,1,T,space,,
,,,,,,,,,,,,,,,PUM28B,001,PUM28B,2024-01-08_13h38.48.193,Trial go no go,2020.2.10,Win32,60,,,,,,,,,,,,,,,,space,1,0.3431,0,27,27,45,1,A,space,,
,,,,,,,,,,,,,,,PUM28B,001,PUM28B,2024-01-08_13h38.48.193,Trial go no go,2020.2.10,Win32,60,,,,,,,,,,,,,,,,space,0,0.3183,0,28,28,14,1,X,none,,
,,,,,,,,,,,,,,,PUM28B,001,PUM28B,2024-01-08_13h38.48.193,Trial go no go,2020.2.10,Win32,60,,,,,,,,,,,,,,,,space,1,0.293,0,29,29,35,1,N,space,,
,,,,,,,,,,,,,,,PUM28B,001,PUM28B,2024-01-08_13h38.48.193,Trial go no go,2020.2.10,Win32,60,,,,,,,,,,,,,,,,space,1,0.3837,0,30,30,1,1,E,space,,
,,,,,,,,,,,,,,,PUM28B,001,PUM28B,2024-01-08_13h38.48.193,Trial go no go,2020.2.10,Win32,60,,,,,,,,,,,,,,,,space,1,0.3871,0,31,31,28,1,H,space,,
,,,,,,,,,,,,,,,PUM28B,001,PUM28B,2024-01-08_13h38.48.193,Trial go no go,2020.2.10,Win32,60,,,,,,,,,,,,,,,,space,1,0.4581,0,32,32,16,1,N,space,,
,,,,,,,,,,,,,,,PUM28B,001,PUM28B,2024-01-08_13h38.48.193,Trial go no go,2020.2.10,Win32,60,,,,,,,,,,,,,,,,,1,,0,33,33,29,1,X,none,,
,,,,,,,,,,,,,,,PUM28B,001,PUM28B,2024-01-08_13h38.48.193,Trial go no go,2020.2.10,Win32,60,,,,,,,,,,,,,,,,space,1,0.2835,0,34,34,42,1,Y,space,,
,,,,,,,,,,,,,,,PUM28B,001,PUM28B,2024-01-08_13h38.48.193,Trial go no go,2020.2.10,Win32,60,,,,,,,,,,,,,,,,space,1,0.3357,0,35,35,15,1,V,space,,
,,,,,,,,,,,,,,,PUM28B,001,PUM28B,2024-01-08_13h38.48.193,Trial go no go,2020.2.10,Win32,60,,,,,,,,,,,,,,,,space,1,0.3907,0,36,36,40,1,R,space,,
,,,,,,,,,,,,,,,PUM28B,001,PUM28B,2024-01-08_13h38.48.193,Trial go no go,2020.2.10,Win32,60,,,,,,,,,,,,,,,,,1,,0,37,37,49,1,X,none,,
,,,,,,,,,,,,,,,PUM28B,001,PUM28B,2024-01-08_13h38.48.193,Trial go no go,2020.2.10,Win32,60,,,,,,,,,,,,,,,,space,1,0.277,0,38,38,26,1,A,space,,
,,,,,,,,,,,,,,,PUM28B,001,PUM28B,2024-01-08_13h38.48.193,Trial go no go,2020.2.10,Win32,60,,,,,,,,,,,,,,,,space,1,0.3337,0,39,39,46,1,F,space,,
,,,,,,,,,,,,,,,PUM28B,001,PUM28B,2024-01-08_13h38.48.193,Trial go no go,2020.2.10,Win32,60,,,,,,,,,,,,,,,,space,1,0.3226,0,40,40,22,1,T,space,,
,,,,,,,,,,,,,,,PUM28B,001,PUM28B,2024-01-08_13h38.48.193,Trial go no go,2020.2.10,Win32,60,,,,,,,,,,,,,,,,space,1,0.3777,0,41,41,37,1,W,space,,
,,,,,,,,,,,,,,,PUM28B,001,PUM28B,2024-01-08_13h38.48.193,Trial go no go,2020.2.10,Win32,60,,,,,,,,,,,,,,,,space,1,0.5171,0,42,42,2,1,R,space,,
,,,,,,,,,,,,,,,PUM28B,001,PUM28B,2024-01-08_13h38.48.193,Trial go no go,2020.2.10,Win32,60,,,,,,,,,,,,,,,,space,1,0.5516,0,43,43,27,1,F,space,,
,,,,,,,,,,,,,,,PUM28B,001,PUM28B,2024-01-08_13h38.48.193,Trial go no go,2020.2.10,Win32,60,,,,,,,,,,,,,,,,space,1,0.5269,0,44,44,20,1,E,space,,
,,,,,,,,,,,,,,,PUM28B,001,PUM28B,2024-01-08_13h38.48.193,Trial go no go,2020.2.10,Win32,60,,,,,,,,,,,,,,,,space,1,0.5017,0,45,45,6,1,I,space,,
,,,,,,,,,,,,,,,PUM28B,001,PUM28B,2024-01-08_13h38.48.193,Trial go no go,2020.2.10,Win32,60,,,,,,,,,,,,,,,,space,1,0.5246,0,46,46,12,1,L,space,,
,,,,,,,,,,,,,,,PUM28B,001,PUM28B,2024-01-08_13h38.48.193,Trial go no go,2020.2.10,Win32,60,,,,,,,,,,,,,,,,space,1,0.4517,0,47,47,7,1,A,space,,
,,,,,,,,,,,,,,,PUM28B,001,PUM28B,2024-01-08_13h38.48.193,Trial go no go,2020.2.10,Win32,60,,,,,,,,,,,,,,,,space,1,0.3947,0,48,48,8,1,F,space,,
,,,,,,,,,,,,,,,PUM28B,001,PUM28B,2024-01-08_13h38.48.193,Trial go no go,2020.2.10,Win32,60,,,,,,,,,,,,,,,,space,1,0.3216,0,49,49,30,1,K,space,,
,,,,,,,,,,,,,,,PUM28B,001,PUM28B,2024-01-08_13h38.48.193,Trial go no go,2020.2.10,Win32,60,,,,,,,,,,,,,,,,,,,,,,,,,,space,13.5143
