resp_Welcome.keys,resp_Welcome.rt,resp_Instr_Intro.keys,resp_Instr_Intro.rt,resp_Instr_Prac1.keys,resp_Instr_Prac1.rt,resp_trial_Prac1.keys,resp_trial_Prac1.corr,prac_trials.thisRepN,prac_trials.thisTrialN,prac_trials.thisN,prac_trials.thisIndex,prac_trials.ran,stimulus_prac1,corrAns_prac1,participant,session,indywidualny kod,date,expName,psychopyVersion,OS,frameRate,resp_trial_Prac1.rt,resp_Instr_Test1.keys,resp_Instr_Test1.rt,resp_trial_Test1.keys,resp_trial_Test1.corr,resp_trial_Test1.rt,test1trial.thisRepN,test1trial.thisTrialN,test1trial.thisN,test1trial.thisIndex,test1trial.ran,stimulus_test1,corrAns_test1,resp_Instr_Test2.keys,resp_Instr_Test2.rt,key_resp_Test2.keys,key_resp_Test2.corr,test2trial.thisRepN,test2trial.thisTrialN,test2trial.thisN,test2trial.thisIndex,test2trial.ran,stimulus_test2,corrAns_test2,key_resp_Test2.rt,resp_theEnd.keys,resp_theEnd.rt
space,228.6242,space,17.6472,space,13.1566,,1,0,0,0,4,1,W,none,PUM26B,001,PUM26B,2023-12-21_08h30.03.007,Trial go no go,2020.2.10,Win32,60,,,,,,,,,,,,,,,,,,,,,,,,,,,
,,,,,,,1,0,1,1,9,1,V,none,PUM26B,001,PUM26B,2023-12-21_08h30.03.007,Trial go no go,2020.2.10,Win32,60,,,,,,,,,,,,,,,,,,,,,,,,,,,
,,,,,,space,1,0,2,2,8,1,X,space,PUM26B,001,PUM26B,2023-12-21_08h30.03.007,Trial go no go,2020.2.10,Win32,60,0.5413,,,,,,,,,,,,,,,,,,,,,,,,,,
,,,,,,space,1,0,3,3,5,1,X,space,PUM26B,001,PUM26B,2023-12-21_08h30.03.007,Trial go no go,2020.2.10,Win32,60,0.6391,,,,,,,,,,,,,,,,,,,,,,,,,,
,,,,,,space,1,0,4,4,10,1,X,space,PUM26B,001,PUM26B,2023-12-21_08h30.03.007,Trial go no go,2020.2.10,Win32,60,0.3898,,,,,,,,,,,,,,,,,,,,,,,,,,
,,,,,,space,1,0,5,5,1,1,X,space,PUM26B,001,PUM26B,2023-12-21_08h30.03.007,Trial go no go,2020.2.10,Win32,60,0.4813,,,,,,,,,,,,,,,,,,,,,,,,,,
,,,,,,,1,0,6,6,14,1,K,none,PUM26B,001,PUM26B,2023-12-21_08h30.03.007,Trial go no go,2020.2.10,Win32,60,,,,,,,,,,,,,,,,,,,,,,,,,,,
,,,,,,space,1,0,7,7,0,1,X,space,PUM26B,001,PUM26B,2023-12-21_08h30.03.007,Trial go no go,2020.2.10,Win32,60,0.4754,,,,,,,,,,,,,,,,,,,,,,,,,,
,,,,,,space,1,0,8,8,11,1,X,space,PUM26B,001,PUM26B,2023-12-21_08h30.03.007,Trial go no go,2020.2.10,Win32,60,0.7603,,,,,,,,,,,,,,,,,,,,,,,,,,
,,,,,,space,1,0,9,9,6,1,X,space,PUM26B,001,PUM26B,2023-12-21_08h30.03.007,Trial go no go,2020.2.10,Win32,60,0.4398,,,,,,,,,,,,,,,,,,,,,,,,,,
,,,,,,space,1,0,10,10,3,1,X,space,PUM26B,001,PUM26B,2023-12-21_08h30.03.007,Trial go no go,2020.2.10,Win32,60,0.5743,,,,,,,,,,,,,,,,,,,,,,,,,,
,,,,,,space,1,0,11,11,12,1,X,space,PUM26B,001,PUM26B,2023-12-21_08h30.03.007,Trial go no go,2020.2.10,Win32,60,0.4799,,,,,,,,,,,,,,,,,,,,,,,,,,
,,,,,,space,1,0,12,12,2,1,X,space,PUM26B,001,PUM26B,2023-12-21_08h30.03.007,Trial go no go,2020.2.10,Win32,60,0.7995,,,,,,,,,,,,,,,,,,,,,,,,,,
,,,,,,,0,0,13,13,13,1,X,space,PUM26B,001,PUM26B,2023-12-21_08h30.03.007,Trial go no go,2020.2.10,Win32,60,,,,,,,,,,,,,,,,,,,,,,,,,,,
,,,,,,space,1,0,14,14,7,1,X,space,PUM26B,001,PUM26B,2023-12-21_08h30.03.007,Trial go no go,2020.2.10,Win32,60,0.5562,,,,,,,,,,,,,,,,,,,,,,,,,,
,,,,,,,,,,,,,,,PUM26B,001,PUM26B,2023-12-21_08h30.03.007,Trial go no go,2020.2.10,Win32,60,,space,11.3927,space,1,0.5213,0,0,0,22,1,X,space,,,,,,,,,,,,,,
,,,,,,,,,,,,,,,PUM26B,001,PUM26B,2023-12-21_08h30.03.007,Trial go no go,2020.2.10,Win32,60,,,,,0,,0,1,1,26,1,X,space,,,,,,,,,,,,,,
,,,,,,,,,,,,,,,PUM26B,001,PUM26B,2023-12-21_08h30.03.007,Trial go no go,2020.2.10,Win32,60,,,,space,1,0.2683,0,2,2,3,1,X,space,,,,,,,,,,,,,,
,,,,,,,,,,,,,,,PUM26B,001,PUM26B,2023-12-21_08h30.03.007,Trial go no go,2020.2.10,Win32,60,,,,,1,,0,3,3,44,1,F,none,,,,,,,,,,,,,,
,,,,,,,,,,,,,,,PUM26B,001,PUM26B,2023-12-21_08h30.03.007,Trial go no go,2020.2.10,Win32,60,,,,,1,,0,4,4,39,1,M,none,,,,,,,,,,,,,,
,,,,,,,,,,,,,,,PUM26B,001,PUM26B,2023-12-21_08h30.03.007,Trial go no go,2020.2.10,Win32,60,,,,,1,,0,5,5,14,1,Y,none,,,,,,,,,,,,,,
,,,,,,,,,,,,,,,PUM26B,001,PUM26B,2023-12-21_08h30.03.007,Trial go no go,2020.2.10,Win32,60,,,,space,1,0.3421,0,6,6,38,1,X,space,,,,,,,,,,,,,,
,,,,,,,,,,,,,,,PUM26B,001,PUM26B,2023-12-21_08h30.03.007,Trial go no go,2020.2.10,Win32,60,,,,space,1,0.455,0,7,7,1,1,X,space,,,,,,,,,,,,,,
,,,,,,,,,,,,,,,PUM26B,001,PUM26B,2023-12-21_08h30.03.007,Trial go no go,2020.2.10,Win32,60,,,,,1,,0,8,8,29,1,T,none,,,,,,,,,,,,,,
,,,,,,,,,,,,,,,PUM26B,001,PUM26B,2023-12-21_08h30.03.007,Trial go no go,2020.2.10,Win32,60,,,,space,1,0.3891,0,9,9,2,1,X,space,,,,,,,,,,,,,,
,,,,,,,,,,,,,,,PUM26B,001,PUM26B,2023-12-21_08h30.03.007,Trial go no go,2020.2.10,Win32,60,,,,,1,,0,10,10,24,1,H,none,,,,,,,,,,,,,,
,,,,,,,,,,,,,,,PUM26B,001,PUM26B,2023-12-21_08h30.03.007,Trial go no go,2020.2.10,Win32,60,,,,space,1,0.4459,0,11,11,45,1,X,space,,,,,,,,,,,,,,
,,,,,,,,,,,,,,,PUM26B,001,PUM26B,2023-12-21_08h30.03.007,Trial go no go,2020.2.10,Win32,60,,,,,1,,0,12,12,4,1,V,none,,,,,,,,,,,,,,
,,,,,,,,,,,,,,,PUM26B,001,PUM26B,2023-12-21_08h30.03.007,Trial go no go,2020.2.10,Win32,60,,,,space,1,0.3694,0,13,13,0,1,X,space,,,,,,,,,,,,,,
,,,,,,,,,,,,,,,PUM26B,001,PUM26B,2023-12-21_08h30.03.007,Trial go no go,2020.2.10,Win32,60,,,,space,1,0.4865,0,14,14,13,1,X,space,,,,,,,,,,,,,,
,,,,,,,,,,,,,,,PUM26B,001,PUM26B,2023-12-21_08h30.03.007,Trial go no go,2020.2.10,Win32,60,,,,space,1,0.4173,0,15,15,25,1,X,space,,,,,,,,,,,,,,
,,,,,,,,,,,,,,,PUM26B,001,PUM26B,2023-12-21_08h30.03.007,Trial go no go,2020.2.10,Win32,60,,,,space,1,0.3346,0,16,16,7,1,X,space,,,,,,,,,,,,,,
,,,,,,,,,,,,,,,PUM26B,001,PUM26B,2023-12-21_08h30.03.007,Trial go no go,2020.2.10,Win32,60,,,,space,1,0.292,0,17,17,16,1,X,space,,,,,,,,,,,,,,
,,,,,,,,,,,,,,,PUM26B,001,PUM26B,2023-12-21_08h30.03.007,Trial go no go,2020.2.10,Win32,60,,,,space,1,0.2937,0,18,18,17,1,X,space,,,,,,,,,,,,,,
,,,,,,,,,,,,,,,PUM26B,001,PUM26B,2023-12-21_08h30.03.007,Trial go no go,2020.2.10,Win32,60,,,,space,1,0.3128,0,19,19,12,1,X,space,,,,,,,,,,,,,,
,,,,,,,,,,,,,,,PUM26B,001,PUM26B,2023-12-21_08h30.03.007,Trial go no go,2020.2.10,Win32,60,,,,space,1,0.3237,0,20,20,30,1,X,space,,,,,,,,,,,,,,
,,,,,,,,,,,,,,,PUM26B,001,PUM26B,2023-12-21_08h30.03.007,Trial go no go,2020.2.10,Win32,60,,,,space,1,0.3513,0,21,21,32,1,X,space,,,,,,,,,,,,,,
,,,,,,,,,,,,,,,PUM26B,001,PUM26B,2023-12-21_08h30.03.007,Trial go no go,2020.2.10,Win32,60,,,,space,1,0.2802,0,22,22,28,1,X,space,,,,,,,,,,,,,,
,,,,,,,,,,,,,,,PUM26B,001,PUM26B,2023-12-21_08h30.03.007,Trial go no go,2020.2.10,Win32,60,,,,space,1,0.2254,0,23,23,40,1,X,space,,,,,,,,,,,,,,
,,,,,,,,,,,,,,,PUM26B,001,PUM26B,2023-12-21_08h30.03.007,Trial go no go,2020.2.10,Win32,60,,,,space,1,0.258,0,24,24,21,1,X,space,,,,,,,,,,,,,,
,,,,,,,,,,,,,,,PUM26B,001,PUM26B,2023-12-21_08h30.03.007,Trial go no go,2020.2.10,Win32,60,,,,space,1,0.2855,0,25,25,35,1,X,space,,,,,,,,,,,,,,
,,,,,,,,,,,,,,,PUM26B,001,PUM26B,2023-12-21_08h30.03.007,Trial go no go,2020.2.10,Win32,60,,,,,1,,0,26,26,49,1,E,none,,,,,,,,,,,,,,
,,,,,,,,,,,,,,,PUM26B,001,PUM26B,2023-12-21_08h30.03.007,Trial go no go,2020.2.10,Win32,60,,,,space,1,0.4957,0,27,27,42,1,X,space,,,,,,,,,,,,,,
,,,,,,,,,,,,,,,PUM26B,001,PUM26B,2023-12-21_08h30.03.007,Trial go no go,2020.2.10,Win32,60,,,,space,1,0.4936,0,28,28,8,1,X,space,,,,,,,,,,,,,,
,,,,,,,,,,,,,,,PUM26B,001,PUM26B,2023-12-21_08h30.03.007,Trial go no go,2020.2.10,Win32,60,,,,space,1,0.3347,0,29,29,31,1,X,space,,,,,,,,,,,,,,
,,,,,,,,,,,,,,,PUM26B,001,PUM26B,2023-12-21_08h30.03.007,Trial go no go,2020.2.10,Win32,60,,,,space,1,0.2923,0,30,30,23,1,X,space,,,,,,,,,,,,,,
,,,,,,,,,,,,,,,PUM26B,001,PUM26B,2023-12-21_08h30.03.007,Trial go no go,2020.2.10,Win32,60,,,,space,1,0.2393,0,31,31,33,1,X,space,,,,,,,,,,,,,,
,,,,,,,,,,,,,,,PUM26B,001,PUM26B,2023-12-21_08h30.03.007,Trial go no go,2020.2.10,Win32,60,,,,space,1,0.2618,0,32,32,20,1,X,space,,,,,,,,,,,,,,
,,,,,,,,,,,,,,,PUM26B,001,PUM26B,2023-12-21_08h30.03.007,Trial go no go,2020.2.10,Win32,60,,,,space,1,0.2391,0,33,33,37,1,X,space,,,,,,,,,,,,,,
,,,,,,,,,,,,,,,PUM26B,001,PUM26B,2023-12-21_08h30.03.007,Trial go no go,2020.2.10,Win32,60,,,,space,1,0.272,0,34,34,11,1,X,space,,,,,,,,,,,,,,
,,,,,,,,,,,,,,,PUM26B,001,PUM26B,2023-12-21_08h30.03.007,Trial go no go,2020.2.10,Win32,60,,,,,1,,0,35,35,19,1,K,none,,,,,,,,,,,,,,
,,,,,,,,,,,,,,,PUM26B,001,PUM26B,2023-12-21_08h30.03.007,Trial go no go,2020.2.10,Win32,60,,,,,1,,0,36,36,34,1,N,none,,,,,,,,,,,,,,
,,,,,,,,,,,,,,,PUM26B,001,PUM26B,2023-12-21_08h30.03.007,Trial go no go,2020.2.10,Win32,60,,,,space,1,0.3755,0,37,37,48,1,X,space,,,,,,,,,,,,,,
,,,,,,,,,,,,,,,PUM26B,001,PUM26B,2023-12-21_08h30.03.007,Trial go no go,2020.2.10,Win32,60,,,,,1,,0,38,38,9,1,W,none,,,,,,,,,,,,,,
,,,,,,,,,,,,,,,PUM26B,001,PUM26B,2023-12-21_08h30.03.007,Trial go no go,2020.2.10,Win32,60,,,,space,1,0.3911,0,39,39,43,1,X,space,,,,,,,,,,,,,,
,,,,,,,,,,,,,,,PUM26B,001,PUM26B,2023-12-21_08h30.03.007,Trial go no go,2020.2.10,Win32,60,,,,space,1,0.3767,0,40,40,47,1,X,space,,,,,,,,,,,,,,
,,,,,,,,,,,,,,,PUM26B,001,PUM26B,2023-12-21_08h30.03.007,Trial go no go,2020.2.10,Win32,60,,,,space,1,0.2534,0,41,41,10,1,X,space,,,,,,,,,,,,,,
,,,,,,,,,,,,,,,PUM26B,001,PUM26B,2023-12-21_08h30.03.007,Trial go no go,2020.2.10,Win32,60,,,,space,1,0.2642,0,42,42,36,1,X,space,,,,,,,,,,,,,,
,,,,,,,,,,,,,,,PUM26B,001,PUM26B,2023-12-21_08h30.03.007,Trial go no go,2020.2.10,Win32,60,,,,space,1,0.309,0,43,43,5,1,X,space,,,,,,,,,,,,,,
,,,,,,,,,,,,,,,PUM26B,001,PUM26B,2023-12-21_08h30.03.007,Trial go no go,2020.2.10,Win32,60,,,,space,1,0.3216,0,44,44,15,1,X,space,,,,,,,,,,,,,,
,,,,,,,,,,,,,,,PUM26B,001,PUM26B,2023-12-21_08h30.03.007,Trial go no go,2020.2.10,Win32,60,,,,space,1,0.3063,0,45,45,18,1,X,space,,,,,,,,,,,,,,
,,,,,,,,,,,,,,,PUM26B,001,PUM26B,2023-12-21_08h30.03.007,Trial go no go,2020.2.10,Win32,60,,,,space,1,0.3131,0,46,46,6,1,X,space,,,,,,,,,,,,,,
,,,,,,,,,,,,,,,PUM26B,001,PUM26B,2023-12-21_08h30.03.007,Trial go no go,2020.2.10,Win32,60,,,,space,1,0.314,0,47,47,46,1,X,space,,,,,,,,,,,,,,
,,,,,,,,,,,,,,,PUM26B,001,PUM26B,2023-12-21_08h30.03.007,Trial go no go,2020.2.10,Win32,60,,,,space,1,0.3719,0,48,48,27,1,X,space,,,,,,,,,,,,,,
,,,,,,,,,,,,,,,PUM26B,001,PUM26B,2023-12-21_08h30.03.007,Trial go no go,2020.2.10,Win32,60,,,,space,1,0.3347,0,49,49,41,1,X,space,,,,,,,,,,,,,,
,,,,,,,,,,,,,,,PUM26B,001,PUM26B,2023-12-21_08h30.03.007,Trial go no go,2020.2.10,Win32,60,,,,,,,,,,,,,,z,18.7528,,1,0,0,0,39,1,X,none,,,
,,,,,,,,,,,,,,,PUM26B,001,PUM26B,2023-12-21_08h30.03.007,Trial go no go,2020.2.10,Win32,60,,,,,,,,,,,,,,,,space,1,0,1,1,7,1,A,space,0.3824,,
,,,,,,,,,,,,,,,PUM26B,001,PUM26B,2023-12-21_08h30.03.007,Trial go no go,2020.2.10,Win32,60,,,,,,,,,,,,,,,,,1,0,2,2,19,1,X,none,,,
,,,,,,,,,,,,,,,PUM26B,001,PUM26B,2023-12-21_08h30.03.007,Trial go no go,2020.2.10,Win32,60,,,,,,,,,,,,,,,,,1,0,3,3,49,1,X,none,,,
,,,,,,,,,,,,,,,PUM26B,001,PUM26B,2023-12-21_08h30.03.007,Trial go no go,2020.2.10,Win32,60,,,,,,,,,,,,,,,,space,1,0,4,4,8,1,F,space,0.3686,,
,,,,,,,,,,,,,,,PUM26B,001,PUM26B,2023-12-21_08h30.03.007,Trial go no go,2020.2.10,Win32,60,,,,,,,,,,,,,,,,space,1,0,5,5,21,1,R,space,0.4666,,
,,,,,,,,,,,,,,,PUM26B,001,PUM26B,2023-12-21_08h30.03.007,Trial go no go,2020.2.10,Win32,60,,,,,,,,,,,,,,,,space,1,0,6,6,48,1,K,space,0.3836,,
,,,,,,,,,,,,,,,PUM26B,001,PUM26B,2023-12-21_08h30.03.007,Trial go no go,2020.2.10,Win32,60,,,,,,,,,,,,,,,,space,1,0,7,7,1,1,E,space,0.3824,,
,,,,,,,,,,,,,,,PUM26B,001,PUM26B,2023-12-21_08h30.03.007,Trial go no go,2020.2.10,Win32,60,,,,,,,,,,,,,,,,,1,0,8,8,9,1,X,none,,,
,,,,,,,,,,,,,,,PUM26B,001,PUM26B,2023-12-21_08h30.03.007,Trial go no go,2020.2.10,Win32,60,,,,,,,,,,,,,,,,space,1,0,9,9,22,1,T,space,0.3758,,
,,,,,,,,,,,,,,,PUM26B,001,PUM26B,2023-12-21_08h30.03.007,Trial go no go,2020.2.10,Win32,60,,,,,,,,,,,,,,,,space,1,0,10,10,15,1,V,space,0.4542,,
,,,,,,,,,,,,,,,PUM26B,001,PUM26B,2023-12-21_08h30.03.007,Trial go no go,2020.2.10,Win32,60,,,,,,,,,,,,,,,,space,1,0,11,11,23,1,Y,space,0.4169,,
,,,,,,,,,,,,,,,PUM26B,001,PUM26B,2023-12-21_08h30.03.007,Trial go no go,2020.2.10,Win32,60,,,,,,,,,,,,,,,,space,1,0,12,12,25,1,I,space,0.3691,,
,,,,,,,,,,,,,,,PUM26B,001,PUM26B,2023-12-21_08h30.03.007,Trial go no go,2020.2.10,Win32,60,,,,,,,,,,,,,,,,,1,0,13,13,14,1,X,none,,,
,,,,,,,,,,,,,,,PUM26B,001,PUM26B,2023-12-21_08h30.03.007,Trial go no go,2020.2.10,Win32,60,,,,,,,,,,,,,,,,space,1,0,14,14,35,1,N,space,0.4191,,
,,,,,,,,,,,,,,,PUM26B,001,PUM26B,2023-12-21_08h30.03.007,Trial go no go,2020.2.10,Win32,60,,,,,,,,,,,,,,,,space,1,0,15,15,3,1,T,space,0.3567,,
,,,,,,,,,,,,,,,PUM26B,001,PUM26B,2023-12-21_08h30.03.007,Trial go no go,2020.2.10,Win32,60,,,,,,,,,,,,,,,,,1,0,16,16,4,1,X,none,,,
,,,,,,,,,,,,,,,PUM26B,001,PUM26B,2023-12-21_08h30.03.007,Trial go no go,2020.2.10,Win32,60,,,,,,,,,,,,,,,,space,1,0,17,17,42,1,Y,space,0.2614,,
,,,,,,,,,,,,,,,PUM26B,001,PUM26B,2023-12-21_08h30.03.007,Trial go no go,2020.2.10,Win32,60,,,,,,,,,,,,,,,,space,1,0,18,18,13,1,Z,space,0.314,,
,,,,,,,,,,,,,,,PUM26B,001,PUM26B,2023-12-21_08h30.03.007,Trial go no go,2020.2.10,Win32,60,,,,,,,,,,,,,,,,space,1,0,19,19,47,1,H,space,0.3923,,
,,,,,,,,,,,,,,,PUM26B,001,PUM26B,2023-12-21_08h30.03.007,Trial go no go,2020.2.10,Win32,60,,,,,,,,,,,,,,,,space,1,0,20,20,10,1,H,space,0.3262,,
,,,,,,,,,,,,,,,PUM26B,001,PUM26B,2023-12-21_08h30.03.007,Trial go no go,2020.2.10,Win32,60,,,,,,,,,,,,,,,,space,1,0,21,21,37,1,W,space,0.4248,,
,,,,,,,,,,,,,,,PUM26B,001,PUM26B,2023-12-21_08h30.03.007,Trial go no go,2020.2.10,Win32,60,,,,,,,,,,,,,,,,space,1,0,22,22,26,1,A,space,0.7171,,
,,,,,,,,,,,,,,,PUM26B,001,PUM26B,2023-12-21_08h30.03.007,Trial go no go,2020.2.10,Win32,60,,,,,,,,,,,,,,,,space,1,0,23,23,43,1,I,space,0.4519,,
,,,,,,,,,,,,,,,PUM26B,001,PUM26B,2023-12-21_08h30.03.007,Trial go no go,2020.2.10,Win32,60,,,,,,,,,,,,,,,,space,1,0,24,24,0,1,W,space,0.4408,,
,,,,,,,,,,,,,,,PUM26B,001,PUM26B,2023-12-21_08h30.03.007,Trial go no go,2020.2.10,Win32,60,,,,,,,,,,,,,,,,space,1,0,25,25,38,1,E,space,0.363,,
,,,,,,,,,,,,,,,PUM26B,001,PUM26B,2023-12-21_08h30.03.007,Trial go no go,2020.2.10,Win32,60,,,,,,,,,,,,,,,,,1,0,26,26,44,1,X,none,,,
,,,,,,,,,,,,,,,PUM26B,001,PUM26B,2023-12-21_08h30.03.007,Trial go no go,2020.2.10,Win32,60,,,,,,,,,,,,,,,,space,1,0,27,27,20,1,E,space,0.2579,,
,,,,,,,,,,,,,,,PUM26B,001,PUM26B,2023-12-21_08h30.03.007,Trial go no go,2020.2.10,Win32,60,,,,,,,,,,,,,,,,space,1,0,28,28,45,1,A,space,0.2859,,
,,,,,,,,,,,,,,,PUM26B,001,PUM26B,2023-12-21_08h30.03.007,Trial go no go,2020.2.10,Win32,60,,,,,,,,,,,,,,,,space,0,0,29,29,29,1,X,none,0.327,,
,,,,,,,,,,,,,,,PUM26B,001,PUM26B,2023-12-21_08h30.03.007,Trial go no go,2020.2.10,Win32,60,,,,,,,,,,,,,,,,space,1,0,30,30,32,1,Z,space,0.5425,,
,,,,,,,,,,,,,,,PUM26B,001,PUM26B,2023-12-21_08h30.03.007,Trial go no go,2020.2.10,Win32,60,,,,,,,,,,,,,,,,space,0,0,31,31,24,1,X,none,0.9627,,
,,,,,,,,,,,,,,,PUM26B,001,PUM26B,2023-12-21_08h30.03.007,Trial go no go,2020.2.10,Win32,60,,,,,,,,,,,,,,,,,0,0,32,32,40,1,R,space,,,
,,,,,,,,,,,,,,,PUM26B,001,PUM26B,2023-12-21_08h30.03.007,Trial go no go,2020.2.10,Win32,60,,,,,,,,,,,,,,,,space,1,0,33,33,17,1,M,space,0.3063,,
,,,,,,,,,,,,,,,PUM26B,001,PUM26B,2023-12-21_08h30.03.007,Trial go no go,2020.2.10,Win32,60,,,,,,,,,,,,,,,,space,1,0,34,34,33,1,V,space,0.3546,,
,,,,,,,,,,,,,,,PUM26B,001,PUM26B,2023-12-21_08h30.03.007,Trial go no go,2020.2.10,Win32,60,,,,,,,,,,,,,,,,space,1,0,35,35,5,1,Y,space,0.5106,,
,,,,,,,,,,,,,,,PUM26B,001,PUM26B,2023-12-21_08h30.03.007,Trial go no go,2020.2.10,Win32,60,,,,,,,,,,,,,,,,,1,0,36,36,34,1,X,none,,,
,,,,,,,,,,,,,,,PUM26B,001,PUM26B,2023-12-21_08h30.03.007,Trial go no go,2020.2.10,Win32,60,,,,,,,,,,,,,,,,space,1,0,37,37,11,1,K,space,0.0032,,
,,,,,,,,,,,,,,,PUM26B,001,PUM26B,2023-12-21_08h30.03.007,Trial go no go,2020.2.10,Win32,60,,,,,,,,,,,,,,,,space,1,0,38,38,41,1,T,space,0.3074,,
,,,,,,,,,,,,,,,PUM26B,001,PUM26B,2023-12-21_08h30.03.007,Trial go no go,2020.2.10,Win32,60,,,,,,,,,,,,,,,,space,1,0,39,39,2,1,R,space,0.4965,,
,,,,,,,,,,,,,,,PUM26B,001,PUM26B,2023-12-21_08h30.03.007,Trial go no go,2020.2.10,Win32,60,,,,,,,,,,,,,,,,space,1,0,40,40,31,1,L,space,0.7807,,
,,,,,,,,,,,,,,,PUM26B,001,PUM26B,2023-12-21_08h30.03.007,Trial go no go,2020.2.10,Win32,60,,,,,,,,,,,,,,,,space,1,0,41,41,27,1,F,space,0.5219,,
,,,,,,,,,,,,,,,PUM26B,001,PUM26B,2023-12-21_08h30.03.007,Trial go no go,2020.2.10,Win32,60,,,,,,,,,,,,,,,,space,1,0,42,42,18,1,W,space,0.5003,,
,,,,,,,,,,,,,,,PUM26B,001,PUM26B,2023-12-21_08h30.03.007,Trial go no go,2020.2.10,Win32,60,,,,,,,,,,,,,,,,space,1,0,43,43,12,1,L,space,0.3824,,
,,,,,,,,,,,,,,,PUM26B,001,PUM26B,2023-12-21_08h30.03.007,Trial go no go,2020.2.10,Win32,60,,,,,,,,,,,,,,,,space,1,0,44,44,28,1,H,space,0.4101,,
,,,,,,,,,,,,,,,PUM26B,001,PUM26B,2023-12-21_08h30.03.007,Trial go no go,2020.2.10,Win32,60,,,,,,,,,,,,,,,,space,1,0,45,45,46,1,F,space,0.4524,,
,,,,,,,,,,,,,,,PUM26B,001,PUM26B,2023-12-21_08h30.03.007,Trial go no go,2020.2.10,Win32,60,,,,,,,,,,,,,,,,space,1,0,46,46,30,1,K,space,0.3417,,
,,,,,,,,,,,,,,,PUM26B,001,PUM26B,2023-12-21_08h30.03.007,Trial go no go,2020.2.10,Win32,60,,,,,,,,,,,,,,,,space,1,0,47,47,16,1,N,space,0.3069,,
,,,,,,,,,,,,,,,PUM26B,001,PUM26B,2023-12-21_08h30.03.007,Trial go no go,2020.2.10,Win32,60,,,,,,,,,,,,,,,,space,1,0,48,48,36,1,M,space,0.3347,,
,,,,,,,,,,,,,,,PUM26B,001,PUM26B,2023-12-21_08h30.03.007,Trial go no go,2020.2.10,Win32,60,,,,,,,,,,,,,,,,space,1,0,49,49,6,1,I,space,0.3552,,
,,,,,,,,,,,,,,,PUM26B,001,PUM26B,2023-12-21_08h30.03.007,Trial go no go,2020.2.10,Win32,60,,,,,,,,,,,,,,,,,,,,,,,,,,space,64.3078
