resp_Welcome.keys,resp_Welcome.rt,resp_Instr_Intro.keys,resp_Instr_Intro.rt,resp_Instr_Prac1.keys,resp_Instr_Prac1.rt,resp_trial_Prac1.keys,resp_trial_Prac1.corr,resp_trial_Prac1.rt,prac_trials.thisRepN,prac_trials.thisTrialN,prac_trials.thisN,prac_trials.thisIndex,prac_trials.ran,stimulus_prac1,corrAns_prac1,participant,session,indywidualny kod,date,expName,psychopyVersion,OS,frameRate,resp_Instr_Test1.keys,resp_Instr_Test1.rt,resp_trial_Test1.keys,resp_trial_Test1.corr,resp_trial_Test1.rt,test1trial.thisRepN,test1trial.thisTrialN,test1trial.thisN,test1trial.thisIndex,test1trial.ran,stimulus_test1,corrAns_test1,resp_Instr_Test2.keys,resp_Instr_Test2.rt,key_resp_Test2.keys,key_resp_Test2.corr,test2trial.thisRepN,test2trial.thisTrialN,test2trial.thisN,test2trial.thisIndex,test2trial.ran,stimulus_test2,corrAns_test2,key_resp_Test2.rt,resp_theEnd.keys,resp_theEnd.rt
space,8.6854,space,10.1513,space,8.5597,space,1,0.4944,0,0,0,8,1,X,space,PUM23K,001,PUM23K,2024-03-18_08h39.20.946,Trial go no go,2020.2.10,Win32,60,,,,,,,,,,,,,,,,,,,,,,,,,,
,,,,,,space,1,0.4185,0,1,1,7,1,X,space,PUM23K,001,PUM23K,2024-03-18_08h39.20.946,Trial go no go,2020.2.10,Win32,60,,,,,,,,,,,,,,,,,,,,,,,,,,
,,,,,,space,1,0.3932,0,2,2,0,1,X,space,PUM23K,001,PUM23K,2024-03-18_08h39.20.946,Trial go no go,2020.2.10,Win32,60,,,,,,,,,,,,,,,,,,,,,,,,,,
,,,,,,,1,,0,3,3,4,1,W,none,PUM23K,001,PUM23K,2024-03-18_08h39.20.946,Trial go no go,2020.2.10,Win32,60,,,,,,,,,,,,,,,,,,,,,,,,,,
,,,,,,space,1,0.3949,0,4,4,3,1,X,space,PUM23K,001,PUM23K,2024-03-18_08h39.20.946,Trial go no go,2020.2.10,Win32,60,,,,,,,,,,,,,,,,,,,,,,,,,,
,,,,,,space,1,0.2927,0,5,5,11,1,X,space,PUM23K,001,PUM23K,2024-03-18_08h39.20.946,Trial go no go,2020.2.10,Win32,60,,,,,,,,,,,,,,,,,,,,,,,,,,
,,,,,,space,1,0.3707,0,6,6,5,1,X,space,PUM23K,001,PUM23K,2024-03-18_08h39.20.946,Trial go no go,2020.2.10,Win32,60,,,,,,,,,,,,,,,,,,,,,,,,,,
,,,,,,space,1,0.5351,0,7,7,1,1,X,space,PUM23K,001,PUM23K,2024-03-18_08h39.20.946,Trial go no go,2020.2.10,Win32,60,,,,,,,,,,,,,,,,,,,,,,,,,,
,,,,,,space,1,0.3089,0,8,8,6,1,X,space,PUM23K,001,PUM23K,2024-03-18_08h39.20.946,Trial go no go,2020.2.10,Win32,60,,,,,,,,,,,,,,,,,,,,,,,,,,
,,,,,,space,1,0.3335,0,9,9,12,1,X,space,PUM23K,001,PUM23K,2024-03-18_08h39.20.946,Trial go no go,2020.2.10,Win32,60,,,,,,,,,,,,,,,,,,,,,,,,,,
,,,,,,space,0,0.3255,0,10,10,14,1,K,none,PUM23K,001,PUM23K,2024-03-18_08h39.20.946,Trial go no go,2020.2.10,Win32,60,,,,,,,,,,,,,,,,,,,,,,,,,,
,,,,,,space,1,0.5856,0,11,11,13,1,X,space,PUM23K,001,PUM23K,2024-03-18_08h39.20.946,Trial go no go,2020.2.10,Win32,60,,,,,,,,,,,,,,,,,,,,,,,,,,
,,,,,,,1,,0,12,12,9,1,V,none,PUM23K,001,PUM23K,2024-03-18_08h39.20.946,Trial go no go,2020.2.10,Win32,60,,,,,,,,,,,,,,,,,,,,,,,,,,
,,,,,,space,1,0.3869,0,13,13,10,1,X,space,PUM23K,001,PUM23K,2024-03-18_08h39.20.946,Trial go no go,2020.2.10,Win32,60,,,,,,,,,,,,,,,,,,,,,,,,,,
,,,,,,space,1,0.4753,0,14,14,2,1,X,space,PUM23K,001,PUM23K,2024-03-18_08h39.20.946,Trial go no go,2020.2.10,Win32,60,,,,,,,,,,,,,,,,,,,,,,,,,,
,,,,,,,,,,,,,,,,PUM23K,001,PUM23K,2024-03-18_08h39.20.946,Trial go no go,2020.2.10,Win32,60,space,5.1427,space,1,0.54,0,0,0,1,1,X,space,,,,,,,,,,,,,,
,,,,,,,,,,,,,,,,PUM23K,001,PUM23K,2024-03-18_08h39.20.946,Trial go no go,2020.2.10,Win32,60,,,space,1,0.3519,0,1,1,3,1,X,space,,,,,,,,,,,,,,
,,,,,,,,,,,,,,,,PUM23K,001,PUM23K,2024-03-18_08h39.20.946,Trial go no go,2020.2.10,Win32,60,,,space,1,0.2262,0,2,2,2,1,X,space,,,,,,,,,,,,,,
,,,,,,,,,,,,,,,,PUM23K,001,PUM23K,2024-03-18_08h39.20.946,Trial go no go,2020.2.10,Win32,60,,,space,1,0.2282,0,3,3,32,1,X,space,,,,,,,,,,,,,,
,,,,,,,,,,,,,,,,PUM23K,001,PUM23K,2024-03-18_08h39.20.946,Trial go no go,2020.2.10,Win32,60,,,space,1,0.2927,0,4,4,40,1,X,space,,,,,,,,,,,,,,
,,,,,,,,,,,,,,,,PUM23K,001,PUM23K,2024-03-18_08h39.20.946,Trial go no go,2020.2.10,Win32,60,,,space,1,0.2765,0,5,5,36,1,X,space,,,,,,,,,,,,,,
,,,,,,,,,,,,,,,,PUM23K,001,PUM23K,2024-03-18_08h39.20.946,Trial go no go,2020.2.10,Win32,60,,,space,1,0.2673,0,6,6,17,1,X,space,,,,,,,,,,,,,,
,,,,,,,,,,,,,,,,PUM23K,001,PUM23K,2024-03-18_08h39.20.946,Trial go no go,2020.2.10,Win32,60,,,,1,,0,7,7,14,1,Y,none,,,,,,,,,,,,,,
,,,,,,,,,,,,,,,,PUM23K,001,PUM23K,2024-03-18_08h39.20.946,Trial go no go,2020.2.10,Win32,60,,,space,1,0.3008,0,8,8,37,1,X,space,,,,,,,,,,,,,,
,,,,,,,,,,,,,,,,PUM23K,001,PUM23K,2024-03-18_08h39.20.946,Trial go no go,2020.2.10,Win32,60,,,space,1,0.3087,0,9,9,38,1,X,space,,,,,,,,,,,,,,
,,,,,,,,,,,,,,,,PUM23K,001,PUM23K,2024-03-18_08h39.20.946,Trial go no go,2020.2.10,Win32,60,,,space,1,0.2583,0,10,10,48,1,X,space,,,,,,,,,,,,,,
,,,,,,,,,,,,,,,,PUM23K,001,PUM23K,2024-03-18_08h39.20.946,Trial go no go,2020.2.10,Win32,60,,,space,1,0.2928,0,11,11,6,1,X,space,,,,,,,,,,,,,,
,,,,,,,,,,,,,,,,PUM23K,001,PUM23K,2024-03-18_08h39.20.946,Trial go no go,2020.2.10,Win32,60,,,space,1,0.2672,0,12,12,22,1,X,space,,,,,,,,,,,,,,
,,,,,,,,,,,,,,,,PUM23K,001,PUM23K,2024-03-18_08h39.20.946,Trial go no go,2020.2.10,Win32,60,,,space,1,0.3097,0,13,13,27,1,X,space,,,,,,,,,,,,,,
,,,,,,,,,,,,,,,,PUM23K,001,PUM23K,2024-03-18_08h39.20.946,Trial go no go,2020.2.10,Win32,60,,,space,1,0.3014,0,14,14,7,1,X,space,,,,,,,,,,,,,,
,,,,,,,,,,,,,,,,PUM23K,001,PUM23K,2024-03-18_08h39.20.946,Trial go no go,2020.2.10,Win32,60,,,,1,,0,15,15,39,1,M,none,,,,,,,,,,,,,,
,,,,,,,,,,,,,,,,PUM23K,001,PUM23K,2024-03-18_08h39.20.946,Trial go no go,2020.2.10,Win32,60,,,space,1,0.2338,0,16,16,11,1,X,space,,,,,,,,,,,,,,
,,,,,,,,,,,,,,,,PUM23K,001,PUM23K,2024-03-18_08h39.20.946,Trial go no go,2020.2.10,Win32,60,,,space,1,0.2451,0,17,17,8,1,X,space,,,,,,,,,,,,,,
,,,,,,,,,,,,,,,,PUM23K,001,PUM23K,2024-03-18_08h39.20.946,Trial go no go,2020.2.10,Win32,60,,,,1,,0,18,18,4,1,V,none,,,,,,,,,,,,,,
,,,,,,,,,,,,,,,,PUM23K,001,PUM23K,2024-03-18_08h39.20.946,Trial go no go,2020.2.10,Win32,60,,,space,1,0.2334,0,19,19,41,1,X,space,,,,,,,,,,,,,,
,,,,,,,,,,,,,,,,PUM23K,001,PUM23K,2024-03-18_08h39.20.946,Trial go no go,2020.2.10,Win32,60,,,space,0,0.3074,0,20,20,9,1,W,none,,,,,,,,,,,,,,
,,,,,,,,,,,,,,,,PUM23K,001,PUM23K,2024-03-18_08h39.20.946,Trial go no go,2020.2.10,Win32,60,,,,0,,0,21,21,31,1,X,space,,,,,,,,,,,,,,
,,,,,,,,,,,,,,,,PUM23K,001,PUM23K,2024-03-18_08h39.20.946,Trial go no go,2020.2.10,Win32,60,,,space,1,0.3749,0,22,22,28,1,X,space,,,,,,,,,,,,,,
,,,,,,,,,,,,,,,,PUM23K,001,PUM23K,2024-03-18_08h39.20.946,Trial go no go,2020.2.10,Win32,60,,,space,1,0.2574,0,23,23,23,1,X,space,,,,,,,,,,,,,,
,,,,,,,,,,,,,,,,PUM23K,001,PUM23K,2024-03-18_08h39.20.946,Trial go no go,2020.2.10,Win32,60,,,space,1,0.2678,0,24,24,45,1,X,space,,,,,,,,,,,,,,
,,,,,,,,,,,,,,,,PUM23K,001,PUM23K,2024-03-18_08h39.20.946,Trial go no go,2020.2.10,Win32,60,,,space,1,0.2897,0,25,25,21,1,X,space,,,,,,,,,,,,,,
,,,,,,,,,,,,,,,,PUM23K,001,PUM23K,2024-03-18_08h39.20.946,Trial go no go,2020.2.10,Win32,60,,,space,1,0.2875,0,26,26,42,1,X,space,,,,,,,,,,,,,,
,,,,,,,,,,,,,,,,PUM23K,001,PUM23K,2024-03-18_08h39.20.946,Trial go no go,2020.2.10,Win32,60,,,,1,,0,27,27,34,1,N,none,,,,,,,,,,,,,,
,,,,,,,,,,,,,,,,PUM23K,001,PUM23K,2024-03-18_08h39.20.946,Trial go no go,2020.2.10,Win32,60,,,space,1,0.3258,0,28,28,10,1,X,space,,,,,,,,,,,,,,
,,,,,,,,,,,,,,,,PUM23K,001,PUM23K,2024-03-18_08h39.20.946,Trial go no go,2020.2.10,Win32,60,,,space,1,0.3592,0,29,29,25,1,X,space,,,,,,,,,,,,,,
,,,,,,,,,,,,,,,,PUM23K,001,PUM23K,2024-03-18_08h39.20.946,Trial go no go,2020.2.10,Win32,60,,,,1,,0,30,30,24,1,H,none,,,,,,,,,,,,,,
,,,,,,,,,,,,,,,,PUM23K,001,PUM23K,2024-03-18_08h39.20.946,Trial go no go,2020.2.10,Win32,60,,,,1,,0,31,31,44,1,F,none,,,,,,,,,,,,,,
,,,,,,,,,,,,,,,,PUM23K,001,PUM23K,2024-03-18_08h39.20.946,Trial go no go,2020.2.10,Win32,60,,,space,0,0.2774,0,32,32,19,1,K,none,,,,,,,,,,,,,,
,,,,,,,,,,,,,,,,PUM23K,001,PUM23K,2024-03-18_08h39.20.946,Trial go no go,2020.2.10,Win32,60,,,,1,,0,33,33,29,1,T,none,,,,,,,,,,,,,,
,,,,,,,,,,,,,,,,PUM23K,001,PUM23K,2024-03-18_08h39.20.946,Trial go no go,2020.2.10,Win32,60,,,,1,,0,34,34,49,1,E,none,,,,,,,,,,,,,,
,,,,,,,,,,,,,,,,PUM23K,001,PUM23K,2024-03-18_08h39.20.946,Trial go no go,2020.2.10,Win32,60,,,space,1,0.384,0,35,35,43,1,X,space,,,,,,,,,,,,,,
,,,,,,,,,,,,,,,,PUM23K,001,PUM23K,2024-03-18_08h39.20.946,Trial go no go,2020.2.10,Win32,60,,,space,1,0.3573,0,36,36,26,1,X,space,,,,,,,,,,,,,,
,,,,,,,,,,,,,,,,PUM23K,001,PUM23K,2024-03-18_08h39.20.946,Trial go no go,2020.2.10,Win32,60,,,space,1,0.2756,0,37,37,20,1,X,space,,,,,,,,,,,,,,
,,,,,,,,,,,,,,,,PUM23K,001,PUM23K,2024-03-18_08h39.20.946,Trial go no go,2020.2.10,Win32,60,,,space,1,0.2599,0,38,38,0,1,X,space,,,,,,,,,,,,,,
,,,,,,,,,,,,,,,,PUM23K,001,PUM23K,2024-03-18_08h39.20.946,Trial go no go,2020.2.10,Win32,60,,,space,1,0.284,0,39,39,47,1,X,space,,,,,,,,,,,,,,
,,,,,,,,,,,,,,,,PUM23K,001,PUM23K,2024-03-18_08h39.20.946,Trial go no go,2020.2.10,Win32,60,,,space,1,0.3425,0,40,40,16,1,X,space,,,,,,,,,,,,,,
,,,,,,,,,,,,,,,,PUM23K,001,PUM23K,2024-03-18_08h39.20.946,Trial go no go,2020.2.10,Win32,60,,,space,1,0.3093,0,41,41,15,1,X,space,,,,,,,,,,,,,,
,,,,,,,,,,,,,,,,PUM23K,001,PUM23K,2024-03-18_08h39.20.946,Trial go no go,2020.2.10,Win32,60,,,space,1,0.2761,0,42,42,18,1,X,space,,,,,,,,,,,,,,
,,,,,,,,,,,,,,,,PUM23K,001,PUM23K,2024-03-18_08h39.20.946,Trial go no go,2020.2.10,Win32,60,,,space,1,0.3849,0,43,43,33,1,X,space,,,,,,,,,,,,,,
,,,,,,,,,,,,,,,,PUM23K,001,PUM23K,2024-03-18_08h39.20.946,Trial go no go,2020.2.10,Win32,60,,,space,1,0.3675,0,44,44,46,1,X,space,,,,,,,,,,,,,,
,,,,,,,,,,,,,,,,PUM23K,001,PUM23K,2024-03-18_08h39.20.946,Trial go no go,2020.2.10,Win32,60,,,space,1,0.3496,0,45,45,12,1,X,space,,,,,,,,,,,,,,
,,,,,,,,,,,,,,,,PUM23K,001,PUM23K,2024-03-18_08h39.20.946,Trial go no go,2020.2.10,Win32,60,,,space,1,0.4923,0,46,46,13,1,X,space,,,,,,,,,,,,,,
,,,,,,,,,,,,,,,,PUM23K,001,PUM23K,2024-03-18_08h39.20.946,Trial go no go,2020.2.10,Win32,60,,,space,1,0.4425,0,47,47,35,1,X,space,,,,,,,,,,,,,,
,,,,,,,,,,,,,,,,PUM23K,001,PUM23K,2024-03-18_08h39.20.946,Trial go no go,2020.2.10,Win32,60,,,space,1,0.3089,0,48,48,30,1,X,space,,,,,,,,,,,,,,
,,,,,,,,,,,,,,,,PUM23K,001,PUM23K,2024-03-18_08h39.20.946,Trial go no go,2020.2.10,Win32,60,,,space,1,0.2922,0,49,49,5,1,X,space,,,,,,,,,,,,,,
,,,,,,,,,,,,,,,,PUM23K,001,PUM23K,2024-03-18_08h39.20.946,Trial go no go,2020.2.10,Win32,60,,,,,,,,,,,,,z,12.7826,,0,0,0,0,35,1,N,space,,,
,,,,,,,,,,,,,,,,PUM23K,001,PUM23K,2024-03-18_08h39.20.946,Trial go no go,2020.2.10,Win32,60,,,,,,,,,,,,,,,space,1,0,1,1,10,1,H,space,0.3634,,
,,,,,,,,,,,,,,,,PUM23K,001,PUM23K,2024-03-18_08h39.20.946,Trial go no go,2020.2.10,Win32,60,,,,,,,,,,,,,,,space,1,0,2,2,25,1,I,space,0.3514,,
,,,,,,,,,,,,,,,,PUM23K,001,PUM23K,2024-03-18_08h39.20.946,Trial go no go,2020.2.10,Win32,60,,,,,,,,,,,,,,,space,1,0,3,3,6,1,I,space,0.2541,,
,,,,,,,,,,,,,,,,PUM23K,001,PUM23K,2024-03-18_08h39.20.946,Trial go no go,2020.2.10,Win32,60,,,,,,,,,,,,,,,space,1,0,4,4,40,1,R,space,0.4339,,
,,,,,,,,,,,,,,,,PUM23K,001,PUM23K,2024-03-18_08h39.20.946,Trial go no go,2020.2.10,Win32,60,,,,,,,,,,,,,,,space,0,0,5,5,39,1,X,none,0.251,,
,,,,,,,,,,,,,,,,PUM23K,001,PUM23K,2024-03-18_08h39.20.946,Trial go no go,2020.2.10,Win32,60,,,,,,,,,,,,,,,space,1,0,6,6,0,1,W,space,0.2591,,
,,,,,,,,,,,,,,,,PUM23K,001,PUM23K,2024-03-18_08h39.20.946,Trial go no go,2020.2.10,Win32,60,,,,,,,,,,,,,,,,1,0,7,7,34,1,X,none,,,
,,,,,,,,,,,,,,,,PUM23K,001,PUM23K,2024-03-18_08h39.20.946,Trial go no go,2020.2.10,Win32,60,,,,,,,,,,,,,,,space,1,0,8,8,15,1,V,space,0.2258,,
,,,,,,,,,,,,,,,,PUM23K,001,PUM23K,2024-03-18_08h39.20.946,Trial go no go,2020.2.10,Win32,60,,,,,,,,,,,,,,,space,0,0,9,9,14,1,X,none,0.2599,,
,,,,,,,,,,,,,,,,PUM23K,001,PUM23K,2024-03-18_08h39.20.946,Trial go no go,2020.2.10,Win32,60,,,,,,,,,,,,,,,,1,0,10,10,4,1,X,none,,,
,,,,,,,,,,,,,,,,PUM23K,001,PUM23K,2024-03-18_08h39.20.946,Trial go no go,2020.2.10,Win32,60,,,,,,,,,,,,,,,,1,0,11,11,19,1,X,none,,,
,,,,,,,,,,,,,,,,PUM23K,001,PUM23K,2024-03-18_08h39.20.946,Trial go no go,2020.2.10,Win32,60,,,,,,,,,,,,,,,space,1,0,12,12,36,1,M,space,0.3344,,
,,,,,,,,,,,,,,,,PUM23K,001,PUM23K,2024-03-18_08h39.20.946,Trial go no go,2020.2.10,Win32,60,,,,,,,,,,,,,,,space,1,0,13,13,20,1,E,space,0.359,,
,,,,,,,,,,,,,,,,PUM23K,001,PUM23K,2024-03-18_08h39.20.946,Trial go no go,2020.2.10,Win32,60,,,,,,,,,,,,,,,space,1,0,14,14,30,1,K,space,0.3001,,
,,,,,,,,,,,,,,,,PUM23K,001,PUM23K,2024-03-18_08h39.20.946,Trial go no go,2020.2.10,Win32,60,,,,,,,,,,,,,,,,1,0,15,15,24,1,X,none,,,
,,,,,,,,,,,,,,,,PUM23K,001,PUM23K,2024-03-18_08h39.20.946,Trial go no go,2020.2.10,Win32,60,,,,,,,,,,,,,,,space,1,0,16,16,23,1,Y,space,0.3344,,
,,,,,,,,,,,,,,,,PUM23K,001,PUM23K,2024-03-18_08h39.20.946,Trial go no go,2020.2.10,Win32,60,,,,,,,,,,,,,,,,1,0,17,17,44,1,X,none,,,
,,,,,,,,,,,,,,,,PUM23K,001,PUM23K,2024-03-18_08h39.20.946,Trial go no go,2020.2.10,Win32,60,,,,,,,,,,,,,,,space,1,0,18,18,27,1,F,space,0.2836,,
,,,,,,,,,,,,,,,,PUM23K,001,PUM23K,2024-03-18_08h39.20.946,Trial go no go,2020.2.10,Win32,60,,,,,,,,,,,,,,,space,1,0,19,19,1,1,E,space,0.4024,,
,,,,,,,,,,,,,,,,PUM23K,001,PUM23K,2024-03-18_08h39.20.946,Trial go no go,2020.2.10,Win32,60,,,,,,,,,,,,,,,space,1,0,20,20,26,1,A,space,0.3922,,
,,,,,,,,,,,,,,,,PUM23K,001,PUM23K,2024-03-18_08h39.20.946,Trial go no go,2020.2.10,Win32,60,,,,,,,,,,,,,,,space,1,0,21,21,38,1,E,space,0.3852,,
,,,,,,,,,,,,,,,,PUM23K,001,PUM23K,2024-03-18_08h39.20.946,Trial go no go,2020.2.10,Win32,60,,,,,,,,,,,,,,,space,1,0,22,22,42,1,Y,space,0.3426,,
,,,,,,,,,,,,,,,,PUM23K,001,PUM23K,2024-03-18_08h39.20.946,Trial go no go,2020.2.10,Win32,60,,,,,,,,,,,,,,,space,1,0,23,23,48,1,K,space,0.3256,,
,,,,,,,,,,,,,,,,PUM23K,001,PUM23K,2024-03-18_08h39.20.946,Trial go no go,2020.2.10,Win32,60,,,,,,,,,,,,,,,space,1,0,24,24,17,1,M,space,0.3007,,
,,,,,,,,,,,,,,,,PUM23K,001,PUM23K,2024-03-18_08h39.20.946,Trial go no go,2020.2.10,Win32,60,,,,,,,,,,,,,,,space,1,0,25,25,7,1,A,space,0.3936,,
,,,,,,,,,,,,,,,,PUM23K,001,PUM23K,2024-03-18_08h39.20.946,Trial go no go,2020.2.10,Win32,60,,,,,,,,,,,,,,,space,1,0,26,26,13,1,Z,space,0.3005,,
,,,,,,,,,,,,,,,,PUM23K,001,PUM23K,2024-03-18_08h39.20.946,Trial go no go,2020.2.10,Win32,60,,,,,,,,,,,,,,,space,1,0,27,27,32,1,Z,space,0.4532,,
,,,,,,,,,,,,,,,,PUM23K,001,PUM23K,2024-03-18_08h39.20.946,Trial go no go,2020.2.10,Win32,60,,,,,,,,,,,,,,,,1,0,28,28,49,1,X,none,,,
,,,,,,,,,,,,,,,,PUM23K,001,PUM23K,2024-03-18_08h39.20.946,Trial go no go,2020.2.10,Win32,60,,,,,,,,,,,,,,,space,1,0,29,29,47,1,H,space,0.2843,,
,,,,,,,,,,,,,,,,PUM23K,001,PUM23K,2024-03-18_08h39.20.946,Trial go no go,2020.2.10,Win32,60,,,,,,,,,,,,,,,space,1,0,30,30,31,1,L,space,0.2676,,
,,,,,,,,,,,,,,,,PUM23K,001,PUM23K,2024-03-18_08h39.20.946,Trial go no go,2020.2.10,Win32,60,,,,,,,,,,,,,,,space,1,0,31,31,21,1,R,space,0.284,,
,,,,,,,,,,,,,,,,PUM23K,001,PUM23K,2024-03-18_08h39.20.946,Trial go no go,2020.2.10,Win32,60,,,,,,,,,,,,,,,space,1,0,32,32,8,1,F,space,0.2925,,
,,,,,,,,,,,,,,,,PUM23K,001,PUM23K,2024-03-18_08h39.20.946,Trial go no go,2020.2.10,Win32,60,,,,,,,,,,,,,,,space,1,0,33,33,37,1,W,space,0.301,,
,,,,,,,,,,,,,,,,PUM23K,001,PUM23K,2024-03-18_08h39.20.946,Trial go no go,2020.2.10,Win32,60,,,,,,,,,,,,,,,space,1,0,34,34,41,1,T,space,0.2761,,
,,,,,,,,,,,,,,,,PUM23K,001,PUM23K,2024-03-18_08h39.20.946,Trial go no go,2020.2.10,Win32,60,,,,,,,,,,,,,,,space,1,0,35,35,12,1,L,space,0.2675,,
,,,,,,,,,,,,,,,,PUM23K,001,PUM23K,2024-03-18_08h39.20.946,Trial go no go,2020.2.10,Win32,60,,,,,,,,,,,,,,,space,1,0,36,36,18,1,W,space,0.5082,,
,,,,,,,,,,,,,,,,PUM23K,001,PUM23K,2024-03-18_08h39.20.946,Trial go no go,2020.2.10,Win32,60,,,,,,,,,,,,,,,space,1,0,37,37,33,1,V,space,0.3176,,
,,,,,,,,,,,,,,,,PUM23K,001,PUM23K,2024-03-18_08h39.20.946,Trial go no go,2020.2.10,Win32,60,,,,,,,,,,,,,,,space,1,0,38,38,5,1,Y,space,0.2927,,
,,,,,,,,,,,,,,,,PUM23K,001,PUM23K,2024-03-18_08h39.20.946,Trial go no go,2020.2.10,Win32,60,,,,,,,,,,,,,,,space,1,0,39,39,28,1,H,space,0.3448,,
,,,,,,,,,,,,,,,,PUM23K,001,PUM23K,2024-03-18_08h39.20.946,Trial go no go,2020.2.10,Win32,60,,,,,,,,,,,,,,,space,1,0,40,40,11,1,K,space,0.2683,,
,,,,,,,,,,,,,,,,PUM23K,001,PUM23K,2024-03-18_08h39.20.946,Trial go no go,2020.2.10,Win32,60,,,,,,,,,,,,,,,space,1,0,41,41,45,1,A,space,0.2855,,
,,,,,,,,,,,,,,,,PUM23K,001,PUM23K,2024-03-18_08h39.20.946,Trial go no go,2020.2.10,Win32,60,,,,,,,,,,,,,,,space,1,0,42,42,22,1,T,space,0.2855,,
,,,,,,,,,,,,,,,,PUM23K,001,PUM23K,2024-03-18_08h39.20.946,Trial go no go,2020.2.10,Win32,60,,,,,,,,,,,,,,,,1,0,43,43,9,1,X,none,,,
,,,,,,,,,,,,,,,,PUM23K,001,PUM23K,2024-03-18_08h39.20.946,Trial go no go,2020.2.10,Win32,60,,,,,,,,,,,,,,,space,1,0,44,44,16,1,N,space,0.2675,,
,,,,,,,,,,,,,,,,PUM23K,001,PUM23K,2024-03-18_08h39.20.946,Trial go no go,2020.2.10,Win32,60,,,,,,,,,,,,,,,space,1,0,45,45,46,1,F,space,0.286,,
,,,,,,,,,,,,,,,,PUM23K,001,PUM23K,2024-03-18_08h39.20.946,Trial go no go,2020.2.10,Win32,60,,,,,,,,,,,,,,,space,1,0,46,46,3,1,T,space,0.3006,,
,,,,,,,,,,,,,,,,PUM23K,001,PUM23K,2024-03-18_08h39.20.946,Trial go no go,2020.2.10,Win32,60,,,,,,,,,,,,,,,space,1,0,47,47,2,1,R,space,0.2675,,
,,,,,,,,,,,,,,,,PUM23K,001,PUM23K,2024-03-18_08h39.20.946,Trial go no go,2020.2.10,Win32,60,,,,,,,,,,,,,,,space,0,0,48,48,29,1,X,none,0.3021,,
,,,,,,,,,,,,,,,,PUM23K,001,PUM23K,2024-03-18_08h39.20.946,Trial go no go,2020.2.10,Win32,60,,,,,,,,,,,,,,,space,1,0,49,49,43,1,I,space,0.2761,,
,,,,,,,,,,,,,,,,PUM23K,001,PUM23K,2024-03-18_08h39.20.946,Trial go no go,2020.2.10,Win32,60,,,,,,,,,,,,,,,,,,,,,,,,,space,10.4765
