resp_Welcome.keys,resp_Welcome.rt,resp_Instr_Intro.keys,resp_Instr_Intro.rt,resp_Instr_Prac1.keys,resp_Instr_Prac1.rt,resp_trial_Prac1.keys,resp_trial_Prac1.corr,resp_trial_Prac1.rt,prac_trials.thisRepN,prac_trials.thisTrialN,prac_trials.thisN,prac_trials.thisIndex,prac_trials.ran,stimulus_prac1,corrAns_prac1,participant,session,indywidualny kod,date,expName,psychopyVersion,OS,frameRate,resp_Instr_Test1.keys,resp_Instr_Test1.rt,resp_trial_Test1.keys,resp_trial_Test1.corr,test1trial.thisRepN,test1trial.thisTrialN,test1trial.thisN,test1trial.thisIndex,test1trial.ran,stimulus_test1,corrAns_test1,resp_trial_Test1.rt,resp_Instr_Test2.keys,resp_Instr_Test2.rt,key_resp_Test2.keys,key_resp_Test2.corr,key_resp_Test2.rt,test2trial.thisRepN,test2trial.thisTrialN,test2trial.thisN,test2trial.thisIndex,test2trial.ran,stimulus_test2,corrAns_test2,resp_theEnd.keys,resp_theEnd.rt
space,15.79,space,9.6949,space,7.8575,space,1,0.5794,0,0,0,2,1,X,space,PUM23B,001,PUM23B,2023-12-07_08h38.38.268,Trial go no go,2020.2.10,Win32,60,,,,,,,,,,,,,,,,,,,,,,,,,,
,,,,,,,1,,0,1,1,14,1,K,none,PUM23B,001,PUM23B,2023-12-07_08h38.38.268,Trial go no go,2020.2.10,Win32,60,,,,,,,,,,,,,,,,,,,,,,,,,,
,,,,,,space,1,0.421,0,2,2,13,1,X,space,PUM23B,001,PUM23B,2023-12-07_08h38.38.268,Trial go no go,2020.2.10,Win32,60,,,,,,,,,,,,,,,,,,,,,,,,,,
,,,,,,space,1,0.333,0,3,3,7,1,X,space,PUM23B,001,PUM23B,2023-12-07_08h38.38.268,Trial go no go,2020.2.10,Win32,60,,,,,,,,,,,,,,,,,,,,,,,,,,
,,,,,,,1,,0,4,4,9,1,V,none,PUM23B,001,PUM23B,2023-12-07_08h38.38.268,Trial go no go,2020.2.10,Win32,60,,,,,,,,,,,,,,,,,,,,,,,,,,
,,,,,,space,1,0.3494,0,5,5,6,1,X,space,PUM23B,001,PUM23B,2023-12-07_08h38.38.268,Trial go no go,2020.2.10,Win32,60,,,,,,,,,,,,,,,,,,,,,,,,,,
,,,,,,space,1,0.4145,0,6,6,3,1,X,space,PUM23B,001,PUM23B,2023-12-07_08h38.38.268,Trial go no go,2020.2.10,Win32,60,,,,,,,,,,,,,,,,,,,,,,,,,,
,,,,,,space,1,0.3216,0,7,7,10,1,X,space,PUM23B,001,PUM23B,2023-12-07_08h38.38.268,Trial go no go,2020.2.10,Win32,60,,,,,,,,,,,,,,,,,,,,,,,,,,
,,,,,,space,1,0.2674,0,8,8,1,1,X,space,PUM23B,001,PUM23B,2023-12-07_08h38.38.268,Trial go no go,2020.2.10,Win32,60,,,,,,,,,,,,,,,,,,,,,,,,,,
,,,,,,space,1,0.3593,0,9,9,8,1,X,space,PUM23B,001,PUM23B,2023-12-07_08h38.38.268,Trial go no go,2020.2.10,Win32,60,,,,,,,,,,,,,,,,,,,,,,,,,,
,,,,,,space,1,0.2859,0,10,10,12,1,X,space,PUM23B,001,PUM23B,2023-12-07_08h38.38.268,Trial go no go,2020.2.10,Win32,60,,,,,,,,,,,,,,,,,,,,,,,,,,
,,,,,,space,1,0.3689,0,11,11,0,1,X,space,PUM23B,001,PUM23B,2023-12-07_08h38.38.268,Trial go no go,2020.2.10,Win32,60,,,,,,,,,,,,,,,,,,,,,,,,,,
,,,,,,space,1,0.2833,0,12,12,5,1,X,space,PUM23B,001,PUM23B,2023-12-07_08h38.38.268,Trial go no go,2020.2.10,Win32,60,,,,,,,,,,,,,,,,,,,,,,,,,,
,,,,,,space,1,0.271,0,13,13,11,1,X,space,PUM23B,001,PUM23B,2023-12-07_08h38.38.268,Trial go no go,2020.2.10,Win32,60,,,,,,,,,,,,,,,,,,,,,,,,,,
,,,,,,space,0,0.2853,0,14,14,4,1,W,none,PUM23B,001,PUM23B,2023-12-07_08h38.38.268,Trial go no go,2020.2.10,Win32,60,,,,,,,,,,,,,,,,,,,,,,,,,,
,,,,,,,,,,,,,,,,PUM23B,001,PUM23B,2023-12-07_08h38.38.268,Trial go no go,2020.2.10,Win32,60,space,129.6884,,1,0,0,0,19,1,K,none,,,,,,,,,,,,,,,
,,,,,,,,,,,,,,,,PUM23B,001,PUM23B,2023-12-07_08h38.38.268,Trial go no go,2020.2.10,Win32,60,,,space,1,0,1,1,21,1,X,space,0.3617,,,,,,,,,,,,,,
,,,,,,,,,,,,,,,,PUM23B,001,PUM23B,2023-12-07_08h38.38.268,Trial go no go,2020.2.10,Win32,60,,,space,1,0,2,2,47,1,X,space,0.3588,,,,,,,,,,,,,,
,,,,,,,,,,,,,,,,PUM23B,001,PUM23B,2023-12-07_08h38.38.268,Trial go no go,2020.2.10,Win32,60,,,space,1,0,3,3,45,1,X,space,0.3284,,,,,,,,,,,,,,
,,,,,,,,,,,,,,,,PUM23B,001,PUM23B,2023-12-07_08h38.38.268,Trial go no go,2020.2.10,Win32,60,,,space,0,0,4,4,39,1,M,none,0.0651,,,,,,,,,,,,,,
,,,,,,,,,,,,,,,,PUM23B,001,PUM23B,2023-12-07_08h38.38.268,Trial go no go,2020.2.10,Win32,60,,,space,1,0,5,5,48,1,X,space,0.4079,,,,,,,,,,,,,,
,,,,,,,,,,,,,,,,PUM23B,001,PUM23B,2023-12-07_08h38.38.268,Trial go no go,2020.2.10,Win32,60,,,space,1,0,6,6,3,1,X,space,0.4313,,,,,,,,,,,,,,
,,,,,,,,,,,,,,,,PUM23B,001,PUM23B,2023-12-07_08h38.38.268,Trial go no go,2020.2.10,Win32,60,,,space,1,0,7,7,12,1,X,space,0.2178,,,,,,,,,,,,,,
,,,,,,,,,,,,,,,,PUM23B,001,PUM23B,2023-12-07_08h38.38.268,Trial go no go,2020.2.10,Win32,60,,,space,1,0,8,8,18,1,X,space,0.2382,,,,,,,,,,,,,,
,,,,,,,,,,,,,,,,PUM23B,001,PUM23B,2023-12-07_08h38.38.268,Trial go no go,2020.2.10,Win32,60,,,space,1,0,9,9,22,1,X,space,0.2455,,,,,,,,,,,,,,
,,,,,,,,,,,,,,,,PUM23B,001,PUM23B,2023-12-07_08h38.38.268,Trial go no go,2020.2.10,Win32,60,,,space,1,0,10,10,7,1,X,space,0.1671,,,,,,,,,,,,,,
,,,,,,,,,,,,,,,,PUM23B,001,PUM23B,2023-12-07_08h38.38.268,Trial go no go,2020.2.10,Win32,60,,,space,1,0,11,11,8,1,X,space,0.2333,,,,,,,,,,,,,,
,,,,,,,,,,,,,,,,PUM23B,001,PUM23B,2023-12-07_08h38.38.268,Trial go no go,2020.2.10,Win32,60,,,space,1,0,12,12,30,1,X,space,0.2253,,,,,,,,,,,,,,
,,,,,,,,,,,,,,,,PUM23B,001,PUM23B,2023-12-07_08h38.38.268,Trial go no go,2020.2.10,Win32,60,,,space,1,0,13,13,42,1,X,space,0.2775,,,,,,,,,,,,,,
,,,,,,,,,,,,,,,,PUM23B,001,PUM23B,2023-12-07_08h38.38.268,Trial go no go,2020.2.10,Win32,60,,,space,1,0,14,14,26,1,X,space,0.2881,,,,,,,,,,,,,,
,,,,,,,,,,,,,,,,PUM23B,001,PUM23B,2023-12-07_08h38.38.268,Trial go no go,2020.2.10,Win32,60,,,space,0,0,15,15,14,1,Y,none,0.2343,,,,,,,,,,,,,,
,,,,,,,,,,,,,,,,PUM23B,001,PUM23B,2023-12-07_08h38.38.268,Trial go no go,2020.2.10,Win32,60,,,space,1,0,16,16,43,1,X,space,0.3893,,,,,,,,,,,,,,
,,,,,,,,,,,,,,,,PUM23B,001,PUM23B,2023-12-07_08h38.38.268,Trial go no go,2020.2.10,Win32,60,,,space,1,0,17,17,32,1,X,space,0.3603,,,,,,,,,,,,,,
,,,,,,,,,,,,,,,,PUM23B,001,PUM23B,2023-12-07_08h38.38.268,Trial go no go,2020.2.10,Win32,60,,,space,1,0,18,18,46,1,X,space,0.2862,,,,,,,,,,,,,,
,,,,,,,,,,,,,,,,PUM23B,001,PUM23B,2023-12-07_08h38.38.268,Trial go no go,2020.2.10,Win32,60,,,space,1,0,19,19,20,1,X,space,0.3511,,,,,,,,,,,,,,
,,,,,,,,,,,,,,,,PUM23B,001,PUM23B,2023-12-07_08h38.38.268,Trial go no go,2020.2.10,Win32,60,,,space,1,0,20,20,38,1,X,space,0.4619,,,,,,,,,,,,,,
,,,,,,,,,,,,,,,,PUM23B,001,PUM23B,2023-12-07_08h38.38.268,Trial go no go,2020.2.10,Win32,60,,,,1,0,21,21,44,1,F,none,,,,,,,,,,,,,,,
,,,,,,,,,,,,,,,,PUM23B,001,PUM23B,2023-12-07_08h38.38.268,Trial go no go,2020.2.10,Win32,60,,,,1,0,22,22,9,1,W,none,,,,,,,,,,,,,,,
,,,,,,,,,,,,,,,,PUM23B,001,PUM23B,2023-12-07_08h38.38.268,Trial go no go,2020.2.10,Win32,60,,,space,1,0,23,23,16,1,X,space,0.2868,,,,,,,,,,,,,,
,,,,,,,,,,,,,,,,PUM23B,001,PUM23B,2023-12-07_08h38.38.268,Trial go no go,2020.2.10,Win32,60,,,space,1,0,24,24,27,1,X,space,0.2757,,,,,,,,,,,,,,
,,,,,,,,,,,,,,,,PUM23B,001,PUM23B,2023-12-07_08h38.38.268,Trial go no go,2020.2.10,Win32,60,,,,1,0,25,25,29,1,T,none,,,,,,,,,,,,,,,
,,,,,,,,,,,,,,,,PUM23B,001,PUM23B,2023-12-07_08h38.38.268,Trial go no go,2020.2.10,Win32,60,,,,1,0,26,26,49,1,E,none,,,,,,,,,,,,,,,
,,,,,,,,,,,,,,,,PUM23B,001,PUM23B,2023-12-07_08h38.38.268,Trial go no go,2020.2.10,Win32,60,,,space,1,0,27,27,28,1,X,space,0.3247,,,,,,,,,,,,,,
,,,,,,,,,,,,,,,,PUM23B,001,PUM23B,2023-12-07_08h38.38.268,Trial go no go,2020.2.10,Win32,60,,,space,1,0,28,28,25,1,X,space,0.4662,,,,,,,,,,,,,,
,,,,,,,,,,,,,,,,PUM23B,001,PUM23B,2023-12-07_08h38.38.268,Trial go no go,2020.2.10,Win32,60,,,,1,0,29,29,4,1,V,none,,,,,,,,,,,,,,,
,,,,,,,,,,,,,,,,PUM23B,001,PUM23B,2023-12-07_08h38.38.268,Trial go no go,2020.2.10,Win32,60,,,space,1,0,30,30,23,1,X,space,0.3195,,,,,,,,,,,,,,
,,,,,,,,,,,,,,,,PUM23B,001,PUM23B,2023-12-07_08h38.38.268,Trial go no go,2020.2.10,Win32,60,,,space,1,0,31,31,37,1,X,space,0.3476,,,,,,,,,,,,,,
,,,,,,,,,,,,,,,,PUM23B,001,PUM23B,2023-12-07_08h38.38.268,Trial go no go,2020.2.10,Win32,60,,,space,1,0,32,32,11,1,X,space,0.4635,,,,,,,,,,,,,,
,,,,,,,,,,,,,,,,PUM23B,001,PUM23B,2023-12-07_08h38.38.268,Trial go no go,2020.2.10,Win32,60,,,space,1,0,33,33,36,1,X,space,0.2682,,,,,,,,,,,,,,
,,,,,,,,,,,,,,,,PUM23B,001,PUM23B,2023-12-07_08h38.38.268,Trial go no go,2020.2.10,Win32,60,,,space,1,0,34,34,10,1,X,space,0.2824,,,,,,,,,,,,,,
,,,,,,,,,,,,,,,,PUM23B,001,PUM23B,2023-12-07_08h38.38.268,Trial go no go,2020.2.10,Win32,60,,,space,1,0,35,35,33,1,X,space,0.2323,,,,,,,,,,,,,,
,,,,,,,,,,,,,,,,PUM23B,001,PUM23B,2023-12-07_08h38.38.268,Trial go no go,2020.2.10,Win32,60,,,space,1,0,36,36,0,1,X,space,0.3415,,,,,,,,,,,,,,
,,,,,,,,,,,,,,,,PUM23B,001,PUM23B,2023-12-07_08h38.38.268,Trial go no go,2020.2.10,Win32,60,,,space,1,0,37,37,2,1,X,space,0.3128,,,,,,,,,,,,,,
,,,,,,,,,,,,,,,,PUM23B,001,PUM23B,2023-12-07_08h38.38.268,Trial go no go,2020.2.10,Win32,60,,,space,1,0,38,38,40,1,X,space,0.2582,,,,,,,,,,,,,,
,,,,,,,,,,,,,,,,PUM23B,001,PUM23B,2023-12-07_08h38.38.268,Trial go no go,2020.2.10,Win32,60,,,,1,0,39,39,34,1,N,none,,,,,,,,,,,,,,,
,,,,,,,,,,,,,,,,PUM23B,001,PUM23B,2023-12-07_08h38.38.268,Trial go no go,2020.2.10,Win32,60,,,space,1,0,40,40,31,1,X,space,0.3052,,,,,,,,,,,,,,
,,,,,,,,,,,,,,,,PUM23B,001,PUM23B,2023-12-07_08h38.38.268,Trial go no go,2020.2.10,Win32,60,,,space,1,0,41,41,35,1,X,space,0.3196,,,,,,,,,,,,,,
,,,,,,,,,,,,,,,,PUM23B,001,PUM23B,2023-12-07_08h38.38.268,Trial go no go,2020.2.10,Win32,60,,,space,1,0,42,42,17,1,X,space,0.2929,,,,,,,,,,,,,,
,,,,,,,,,,,,,,,,PUM23B,001,PUM23B,2023-12-07_08h38.38.268,Trial go no go,2020.2.10,Win32,60,,,space,1,0,43,43,1,1,X,space,0.2663,,,,,,,,,,,,,,
,,,,,,,,,,,,,,,,PUM23B,001,PUM23B,2023-12-07_08h38.38.268,Trial go no go,2020.2.10,Win32,60,,,space,1,0,44,44,13,1,X,space,0.2981,,,,,,,,,,,,,,
,,,,,,,,,,,,,,,,PUM23B,001,PUM23B,2023-12-07_08h38.38.268,Trial go no go,2020.2.10,Win32,60,,,,1,0,45,45,24,1,H,none,,,,,,,,,,,,,,,
,,,,,,,,,,,,,,,,PUM23B,001,PUM23B,2023-12-07_08h38.38.268,Trial go no go,2020.2.10,Win32,60,,,space,1,0,46,46,15,1,X,space,0.3176,,,,,,,,,,,,,,
,,,,,,,,,,,,,,,,PUM23B,001,PUM23B,2023-12-07_08h38.38.268,Trial go no go,2020.2.10,Win32,60,,,space,1,0,47,47,6,1,X,space,0.3295,,,,,,,,,,,,,,
,,,,,,,,,,,,,,,,PUM23B,001,PUM23B,2023-12-07_08h38.38.268,Trial go no go,2020.2.10,Win32,60,,,space,1,0,48,48,5,1,X,space,0.3064,,,,,,,,,,,,,,
,,,,,,,,,,,,,,,,PUM23B,001,PUM23B,2023-12-07_08h38.38.268,Trial go no go,2020.2.10,Win32,60,,,space,1,0,49,49,41,1,X,space,0.2962,,,,,,,,,,,,,,
,,,,,,,,,,,,,,,,PUM23B,001,PUM23B,2023-12-07_08h38.38.268,Trial go no go,2020.2.10,Win32,60,,,,,,,,,,,,,z,27.2856,space,1,0.7608,0,0,0,36,1,M,space,,
,,,,,,,,,,,,,,,,PUM23B,001,PUM23B,2023-12-07_08h38.38.268,Trial go no go,2020.2.10,Win32,60,,,,,,,,,,,,,,,space,1,0.4053,0,1,1,1,1,E,space,,
,,,,,,,,,,,,,,,,PUM23B,001,PUM23B,2023-12-07_08h38.38.268,Trial go no go,2020.2.10,Win32,60,,,,,,,,,,,,,,,space,0,0.2981,0,2,2,19,1,X,none,,
,,,,,,,,,,,,,,,,PUM23B,001,PUM23B,2023-12-07_08h38.38.268,Trial go no go,2020.2.10,Win32,60,,,,,,,,,,,,,,,space,1,0.4036,0,3,3,13,1,Z,space,,
,,,,,,,,,,,,,,,,PUM23B,001,PUM23B,2023-12-07_08h38.38.268,Trial go no go,2020.2.10,Win32,60,,,,,,,,,,,,,,,space,1,0.4471,0,4,4,43,1,I,space,,
,,,,,,,,,,,,,,,,PUM23B,001,PUM23B,2023-12-07_08h38.38.268,Trial go no go,2020.2.10,Win32,60,,,,,,,,,,,,,,,space,1,0.3397,0,5,5,28,1,H,space,,
,,,,,,,,,,,,,,,,PUM23B,001,PUM23B,2023-12-07_08h38.38.268,Trial go no go,2020.2.10,Win32,60,,,,,,,,,,,,,,,space,1,0.3544,0,6,6,6,1,I,space,,
,,,,,,,,,,,,,,,,PUM23B,001,PUM23B,2023-12-07_08h38.38.268,Trial go no go,2020.2.10,Win32,60,,,,,,,,,,,,,,,space,1,0.3239,0,7,7,45,1,A,space,,
,,,,,,,,,,,,,,,,PUM23B,001,PUM23B,2023-12-07_08h38.38.268,Trial go no go,2020.2.10,Win32,60,,,,,,,,,,,,,,,,1,,0,8,8,39,1,X,none,,
,,,,,,,,,,,,,,,,PUM23B,001,PUM23B,2023-12-07_08h38.38.268,Trial go no go,2020.2.10,Win32,60,,,,,,,,,,,,,,,space,1,0.3332,0,9,9,25,1,I,space,,
,,,,,,,,,,,,,,,,PUM23B,001,PUM23B,2023-12-07_08h38.38.268,Trial go no go,2020.2.10,Win32,60,,,,,,,,,,,,,,,space,1,0.406,0,10,10,27,1,F,space,,
,,,,,,,,,,,,,,,,PUM23B,001,PUM23B,2023-12-07_08h38.38.268,Trial go no go,2020.2.10,Win32,60,,,,,,,,,,,,,,,space,1,0.276,0,11,11,38,1,E,space,,
,,,,,,,,,,,,,,,,PUM23B,001,PUM23B,2023-12-07_08h38.38.268,Trial go no go,2020.2.10,Win32,60,,,,,,,,,,,,,,,space,1,0.3679,0,12,12,30,1,K,space,,
,,,,,,,,,,,,,,,,PUM23B,001,PUM23B,2023-12-07_08h38.38.268,Trial go no go,2020.2.10,Win32,60,,,,,,,,,,,,,,,space,0,0.2535,0,13,13,44,1,X,none,,
,,,,,,,,,,,,,,,,PUM23B,001,PUM23B,2023-12-07_08h38.38.268,Trial go no go,2020.2.10,Win32,60,,,,,,,,,,,,,,,space,1,0.389,0,14,14,0,1,W,space,,
,,,,,,,,,,,,,,,,PUM23B,001,PUM23B,2023-12-07_08h38.38.268,Trial go no go,2020.2.10,Win32,60,,,,,,,,,,,,,,,space,1,0.4061,0,15,15,48,1,K,space,,
,,,,,,,,,,,,,,,,PUM23B,001,PUM23B,2023-12-07_08h38.38.268,Trial go no go,2020.2.10,Win32,60,,,,,,,,,,,,,,,space,1,0.2721,0,16,16,22,1,T,space,,
,,,,,,,,,,,,,,,,PUM23B,001,PUM23B,2023-12-07_08h38.38.268,Trial go no go,2020.2.10,Win32,60,,,,,,,,,,,,,,,space,0,0.3211,0,17,17,4,1,X,none,,
,,,,,,,,,,,,,,,,PUM23B,001,PUM23B,2023-12-07_08h38.38.268,Trial go no go,2020.2.10,Win32,60,,,,,,,,,,,,,,,,1,,0,18,18,14,1,X,none,,
,,,,,,,,,,,,,,,,PUM23B,001,PUM23B,2023-12-07_08h38.38.268,Trial go no go,2020.2.10,Win32,60,,,,,,,,,,,,,,,space,1,0.4047,0,19,19,35,1,N,space,,
,,,,,,,,,,,,,,,,PUM23B,001,PUM23B,2023-12-07_08h38.38.268,Trial go no go,2020.2.10,Win32,60,,,,,,,,,,,,,,,space,1,0.4791,0,20,20,32,1,Z,space,,
,,,,,,,,,,,,,,,,PUM23B,001,PUM23B,2023-12-07_08h38.38.268,Trial go no go,2020.2.10,Win32,60,,,,,,,,,,,,,,,space,1,0.3006,0,21,21,21,1,R,space,,
,,,,,,,,,,,,,,,,PUM23B,001,PUM23B,2023-12-07_08h38.38.268,Trial go no go,2020.2.10,Win32,60,,,,,,,,,,,,,,,space,1,0.4375,0,22,22,40,1,R,space,,
,,,,,,,,,,,,,,,,PUM23B,001,PUM23B,2023-12-07_08h38.38.268,Trial go no go,2020.2.10,Win32,60,,,,,,,,,,,,,,,space,1,0.3174,0,23,23,10,1,H,space,,
,,,,,,,,,,,,,,,,PUM23B,001,PUM23B,2023-12-07_08h38.38.268,Trial go no go,2020.2.10,Win32,60,,,,,,,,,,,,,,,space,1,0.2805,0,24,24,37,1,W,space,,
,,,,,,,,,,,,,,,,PUM23B,001,PUM23B,2023-12-07_08h38.38.268,Trial go no go,2020.2.10,Win32,60,,,,,,,,,,,,,,,space,1,0.285,0,25,25,33,1,V,space,,
,,,,,,,,,,,,,,,,PUM23B,001,PUM23B,2023-12-07_08h38.38.268,Trial go no go,2020.2.10,Win32,60,,,,,,,,,,,,,,,space,1,0.3747,0,26,26,8,1,F,space,,
,,,,,,,,,,,,,,,,PUM23B,001,PUM23B,2023-12-07_08h38.38.268,Trial go no go,2020.2.10,Win32,60,,,,,,,,,,,,,,,,0,,0,27,27,23,1,Y,space,,
,,,,,,,,,,,,,,,,PUM23B,001,PUM23B,2023-12-07_08h38.38.268,Trial go no go,2020.2.10,Win32,60,,,,,,,,,,,,,,,space,1,0.3565,0,28,28,2,1,R,space,,
,,,,,,,,,,,,,,,,PUM23B,001,PUM23B,2023-12-07_08h38.38.268,Trial go no go,2020.2.10,Win32,60,,,,,,,,,,,,,,,space,1,0.2843,0,29,29,3,1,T,space,,
,,,,,,,,,,,,,,,,PUM23B,001,PUM23B,2023-12-07_08h38.38.268,Trial go no go,2020.2.10,Win32,60,,,,,,,,,,,,,,,space,1,0.3295,0,30,30,7,1,A,space,,
,,,,,,,,,,,,,,,,PUM23B,001,PUM23B,2023-12-07_08h38.38.268,Trial go no go,2020.2.10,Win32,60,,,,,,,,,,,,,,,space,1,0.2702,0,31,31,18,1,W,space,,
,,,,,,,,,,,,,,,,PUM23B,001,PUM23B,2023-12-07_08h38.38.268,Trial go no go,2020.2.10,Win32,60,,,,,,,,,,,,,,,space,1,0.3084,0,32,32,46,1,F,space,,
,,,,,,,,,,,,,,,,PUM23B,001,PUM23B,2023-12-07_08h38.38.268,Trial go no go,2020.2.10,Win32,60,,,,,,,,,,,,,,,,1,,0,33,33,49,1,X,none,,
,,,,,,,,,,,,,,,,PUM23B,001,PUM23B,2023-12-07_08h38.38.268,Trial go no go,2020.2.10,Win32,60,,,,,,,,,,,,,,,,1,,0,34,34,29,1,X,none,,
,,,,,,,,,,,,,,,,PUM23B,001,PUM23B,2023-12-07_08h38.38.268,Trial go no go,2020.2.10,Win32,60,,,,,,,,,,,,,,,space,1,0.4056,0,35,35,11,1,K,space,,
,,,,,,,,,,,,,,,,PUM23B,001,PUM23B,2023-12-07_08h38.38.268,Trial go no go,2020.2.10,Win32,60,,,,,,,,,,,,,,,space,1,0.5299,0,36,36,47,1,H,space,,
,,,,,,,,,,,,,,,,PUM23B,001,PUM23B,2023-12-07_08h38.38.268,Trial go no go,2020.2.10,Win32,60,,,,,,,,,,,,,,,,1,,0,37,37,9,1,X,none,,
,,,,,,,,,,,,,,,,PUM23B,001,PUM23B,2023-12-07_08h38.38.268,Trial go no go,2020.2.10,Win32,60,,,,,,,,,,,,,,,space,1,0.2398,0,38,38,5,1,Y,space,,
,,,,,,,,,,,,,,,,PUM23B,001,PUM23B,2023-12-07_08h38.38.268,Trial go no go,2020.2.10,Win32,60,,,,,,,,,,,,,,,space,1,0.5192,0,39,39,41,1,T,space,,
,,,,,,,,,,,,,,,,PUM23B,001,PUM23B,2023-12-07_08h38.38.268,Trial go no go,2020.2.10,Win32,60,,,,,,,,,,,,,,,,1,,0,40,40,34,1,X,none,,
,,,,,,,,,,,,,,,,PUM23B,001,PUM23B,2023-12-07_08h38.38.268,Trial go no go,2020.2.10,Win32,60,,,,,,,,,,,,,,,space,1,0.3803,0,41,41,12,1,L,space,,
,,,,,,,,,,,,,,,,PUM23B,001,PUM23B,2023-12-07_08h38.38.268,Trial go no go,2020.2.10,Win32,60,,,,,,,,,,,,,,,space,1,0.595,0,42,42,15,1,V,space,,
,,,,,,,,,,,,,,,,PUM23B,001,PUM23B,2023-12-07_08h38.38.268,Trial go no go,2020.2.10,Win32,60,,,,,,,,,,,,,,,space,1,0.6803,0,43,43,42,1,Y,space,,
,,,,,,,,,,,,,,,,PUM23B,001,PUM23B,2023-12-07_08h38.38.268,Trial go no go,2020.2.10,Win32,60,,,,,,,,,,,,,,,space,1,0.3767,0,44,44,16,1,N,space,,
,,,,,,,,,,,,,,,,PUM23B,001,PUM23B,2023-12-07_08h38.38.268,Trial go no go,2020.2.10,Win32,60,,,,,,,,,,,,,,,space,1,0.2514,0,45,45,20,1,E,space,,
,,,,,,,,,,,,,,,,PUM23B,001,PUM23B,2023-12-07_08h38.38.268,Trial go no go,2020.2.10,Win32,60,,,,,,,,,,,,,,,space,1,0.3427,0,46,46,31,1,L,space,,
,,,,,,,,,,,,,,,,PUM23B,001,PUM23B,2023-12-07_08h38.38.268,Trial go no go,2020.2.10,Win32,60,,,,,,,,,,,,,,,,1,,0,47,47,24,1,X,none,,
,,,,,,,,,,,,,,,,PUM23B,001,PUM23B,2023-12-07_08h38.38.268,Trial go no go,2020.2.10,Win32,60,,,,,,,,,,,,,,,space,1,0.3792,0,48,48,17,1,M,space,,
,,,,,,,,,,,,,,,,PUM23B,001,PUM23B,2023-12-07_08h38.38.268,Trial go no go,2020.2.10,Win32,60,,,,,,,,,,,,,,,space,1,0.2758,0,49,49,26,1,A,space,,
,,,,,,,,,,,,,,,,PUM23B,001,PUM23B,2023-12-07_08h38.38.268,Trial go no go,2020.2.10,Win32,60,,,,,,,,,,,,,,,,,,,,,,,,,space,19.49
