resp_Welcome.keys,resp_Welcome.rt,resp_Instr_Intro.keys,resp_Instr_Intro.rt,resp_Instr_Prac1.keys,resp_Instr_Prac1.rt,resp_trial_Prac1.keys,resp_trial_Prac1.corr,resp_trial_Prac1.rt,prac_trials.thisRepN,prac_trials.thisTrialN,prac_trials.thisN,prac_trials.thisIndex,prac_trials.ran,stimulus_prac1,corrAns_prac1,participant,session,indywidualny kod,date,expName,psychopyVersion,OS,frameRate,resp_Instr_Test1.keys,resp_Instr_Test1.rt,resp_trial_Test1.keys,resp_trial_Test1.corr,test1trial.thisRepN,test1trial.thisTrialN,test1trial.thisN,test1trial.thisIndex,test1trial.ran,stimulus_test1,corrAns_test1,resp_trial_Test1.rt,resp_Instr_Test2.keys,resp_Instr_Test2.rt,key_resp_Test2.keys,key_resp_Test2.corr,test2trial.thisRepN,test2trial.thisTrialN,test2trial.thisN,test2trial.thisIndex,test2trial.ran,stimulus_test2,corrAns_test2,key_resp_Test2.rt,resp_theEnd.keys,resp_theEnd.rt
space,307.0938,space,11.0436,space,3.5908,space,1,0.6845,0,0,0,2,1,X,space,PUM24B,001,PUM24B,2023-12-11_08h45.56.377,Trial go no go,2020.2.10,Win32,60,,,,,,,,,,,,,,,,,,,,,,,,,,
,,,,,,,1,,0,1,1,14,1,K,none,PUM24B,001,PUM24B,2023-12-11_08h45.56.377,Trial go no go,2020.2.10,Win32,60,,,,,,,,,,,,,,,,,,,,,,,,,,
,,,,,,space,1,0.4637,0,2,2,10,1,X,space,PUM24B,001,PUM24B,2023-12-11_08h45.56.377,Trial go no go,2020.2.10,Win32,60,,,,,,,,,,,,,,,,,,,,,,,,,,
,,,,,,space,1,0.7231,0,3,3,5,1,X,space,PUM24B,001,PUM24B,2023-12-11_08h45.56.377,Trial go no go,2020.2.10,Win32,60,,,,,,,,,,,,,,,,,,,,,,,,,,
,,,,,,space,1,0.4164,0,4,4,3,1,X,space,PUM24B,001,PUM24B,2023-12-11_08h45.56.377,Trial go no go,2020.2.10,Win32,60,,,,,,,,,,,,,,,,,,,,,,,,,,
,,,,,,space,1,0.3355,0,5,5,6,1,X,space,PUM24B,001,PUM24B,2023-12-11_08h45.56.377,Trial go no go,2020.2.10,Win32,60,,,,,,,,,,,,,,,,,,,,,,,,,,
,,,,,,space,1,0.4391,0,6,6,8,1,X,space,PUM24B,001,PUM24B,2023-12-11_08h45.56.377,Trial go no go,2020.2.10,Win32,60,,,,,,,,,,,,,,,,,,,,,,,,,,
,,,,,,space,1,0.2863,0,7,7,13,1,X,space,PUM24B,001,PUM24B,2023-12-11_08h45.56.377,Trial go no go,2020.2.10,Win32,60,,,,,,,,,,,,,,,,,,,,,,,,,,
,,,,,,space,1,0.3348,0,8,8,12,1,X,space,PUM24B,001,PUM24B,2023-12-11_08h45.56.377,Trial go no go,2020.2.10,Win32,60,,,,,,,,,,,,,,,,,,,,,,,,,,
,,,,,,space,1,0.3692,0,9,9,1,1,X,space,PUM24B,001,PUM24B,2023-12-11_08h45.56.377,Trial go no go,2020.2.10,Win32,60,,,,,,,,,,,,,,,,,,,,,,,,,,
,,,,,,,1,,0,10,10,9,1,V,none,PUM24B,001,PUM24B,2023-12-11_08h45.56.377,Trial go no go,2020.2.10,Win32,60,,,,,,,,,,,,,,,,,,,,,,,,,,
,,,,,,space,1,0.2943,0,11,11,11,1,X,space,PUM24B,001,PUM24B,2023-12-11_08h45.56.377,Trial go no go,2020.2.10,Win32,60,,,,,,,,,,,,,,,,,,,,,,,,,,
,,,,,,,1,,0,12,12,4,1,W,none,PUM24B,001,PUM24B,2023-12-11_08h45.56.377,Trial go no go,2020.2.10,Win32,60,,,,,,,,,,,,,,,,,,,,,,,,,,
,,,,,,space,1,0.328,0,13,13,0,1,X,space,PUM24B,001,PUM24B,2023-12-11_08h45.56.377,Trial go no go,2020.2.10,Win32,60,,,,,,,,,,,,,,,,,,,,,,,,,,
,,,,,,space,1,0.3647,0,14,14,7,1,X,space,PUM24B,001,PUM24B,2023-12-11_08h45.56.377,Trial go no go,2020.2.10,Win32,60,,,,,,,,,,,,,,,,,,,,,,,,,,
,,,,,,,,,,,,,,,,PUM24B,001,PUM24B,2023-12-11_08h45.56.377,Trial go no go,2020.2.10,Win32,60,space,5.9097,,0,0,0,0,0,1,X,space,,,,,,,,,,,,,,,
,,,,,,,,,,,,,,,,PUM24B,001,PUM24B,2023-12-11_08h45.56.377,Trial go no go,2020.2.10,Win32,60,,,space,1,0,1,1,38,1,X,space,0.5708,,,,,,,,,,,,,,
,,,,,,,,,,,,,,,,PUM24B,001,PUM24B,2023-12-11_08h45.56.377,Trial go no go,2020.2.10,Win32,60,,,space,1,0,2,2,10,1,X,space,0.2443,,,,,,,,,,,,,,
,,,,,,,,,,,,,,,,PUM24B,001,PUM24B,2023-12-11_08h45.56.377,Trial go no go,2020.2.10,Win32,60,,,space,1,0,3,3,26,1,X,space,0.2389,,,,,,,,,,,,,,
,,,,,,,,,,,,,,,,PUM24B,001,PUM24B,2023-12-11_08h45.56.377,Trial go no go,2020.2.10,Win32,60,,,space,1,0,4,4,16,1,X,space,0.2728,,,,,,,,,,,,,,
,,,,,,,,,,,,,,,,PUM24B,001,PUM24B,2023-12-11_08h45.56.377,Trial go no go,2020.2.10,Win32,60,,,space,1,0,5,5,3,1,X,space,0.2723,,,,,,,,,,,,,,
,,,,,,,,,,,,,,,,PUM24B,001,PUM24B,2023-12-11_08h45.56.377,Trial go no go,2020.2.10,Win32,60,,,space,1,0,6,6,2,1,X,space,0.1778,,,,,,,,,,,,,,
,,,,,,,,,,,,,,,,PUM24B,001,PUM24B,2023-12-11_08h45.56.377,Trial go no go,2020.2.10,Win32,60,,,space,1,0,7,7,43,1,X,space,0.2059,,,,,,,,,,,,,,
,,,,,,,,,,,,,,,,PUM24B,001,PUM24B,2023-12-11_08h45.56.377,Trial go no go,2020.2.10,Win32,60,,,space,1,0,8,8,7,1,X,space,0.219,,,,,,,,,,,,,,
,,,,,,,,,,,,,,,,PUM24B,001,PUM24B,2023-12-11_08h45.56.377,Trial go no go,2020.2.10,Win32,60,,,space,0,0,9,9,44,1,F,none,0.2822,,,,,,,,,,,,,,
,,,,,,,,,,,,,,,,PUM24B,001,PUM24B,2023-12-11_08h45.56.377,Trial go no go,2020.2.10,Win32,60,,,,1,0,10,10,29,1,T,none,,,,,,,,,,,,,,,
,,,,,,,,,,,,,,,,PUM24B,001,PUM24B,2023-12-11_08h45.56.377,Trial go no go,2020.2.10,Win32,60,,,,1,0,11,11,19,1,K,none,,,,,,,,,,,,,,,
,,,,,,,,,,,,,,,,PUM24B,001,PUM24B,2023-12-11_08h45.56.377,Trial go no go,2020.2.10,Win32,60,,,space,1,0,12,12,27,1,X,space,0.3338,,,,,,,,,,,,,,
,,,,,,,,,,,,,,,,PUM24B,001,PUM24B,2023-12-11_08h45.56.377,Trial go no go,2020.2.10,Win32,60,,,space,1,0,13,13,45,1,X,space,0.3356,,,,,,,,,,,,,,
,,,,,,,,,,,,,,,,PUM24B,001,PUM24B,2023-12-11_08h45.56.377,Trial go no go,2020.2.10,Win32,60,,,space,1,0,14,14,23,1,X,space,0.3056,,,,,,,,,,,,,,
,,,,,,,,,,,,,,,,PUM24B,001,PUM24B,2023-12-11_08h45.56.377,Trial go no go,2020.2.10,Win32,60,,,space,1,0,15,15,41,1,X,space,0.2716,,,,,,,,,,,,,,
,,,,,,,,,,,,,,,,PUM24B,001,PUM24B,2023-12-11_08h45.56.377,Trial go no go,2020.2.10,Win32,60,,,,1,0,16,16,24,1,H,none,,,,,,,,,,,,,,,
,,,,,,,,,,,,,,,,PUM24B,001,PUM24B,2023-12-11_08h45.56.377,Trial go no go,2020.2.10,Win32,60,,,space,1,0,17,17,35,1,X,space,0.2605,,,,,,,,,,,,,,
,,,,,,,,,,,,,,,,PUM24B,001,PUM24B,2023-12-11_08h45.56.377,Trial go no go,2020.2.10,Win32,60,,,space,1,0,18,18,31,1,X,space,0.314,,,,,,,,,,,,,,
,,,,,,,,,,,,,,,,PUM24B,001,PUM24B,2023-12-11_08h45.56.377,Trial go no go,2020.2.10,Win32,60,,,space,1,0,19,19,30,1,X,space,0.3548,,,,,,,,,,,,,,
,,,,,,,,,,,,,,,,PUM24B,001,PUM24B,2023-12-11_08h45.56.377,Trial go no go,2020.2.10,Win32,60,,,space,1,0,20,20,21,1,X,space,0.3905,,,,,,,,,,,,,,
,,,,,,,,,,,,,,,,PUM24B,001,PUM24B,2023-12-11_08h45.56.377,Trial go no go,2020.2.10,Win32,60,,,space,1,0,21,21,6,1,X,space,0.3231,,,,,,,,,,,,,,
,,,,,,,,,,,,,,,,PUM24B,001,PUM24B,2023-12-11_08h45.56.377,Trial go no go,2020.2.10,Win32,60,,,space,1,0,22,22,28,1,X,space,0.3161,,,,,,,,,,,,,,
,,,,,,,,,,,,,,,,PUM24B,001,PUM24B,2023-12-11_08h45.56.377,Trial go no go,2020.2.10,Win32,60,,,space,1,0,23,23,42,1,X,space,0.274,,,,,,,,,,,,,,
,,,,,,,,,,,,,,,,PUM24B,001,PUM24B,2023-12-11_08h45.56.377,Trial go no go,2020.2.10,Win32,60,,,space,1,0,24,24,46,1,X,space,0.3274,,,,,,,,,,,,,,
,,,,,,,,,,,,,,,,PUM24B,001,PUM24B,2023-12-11_08h45.56.377,Trial go no go,2020.2.10,Win32,60,,,space,1,0,25,25,1,1,X,space,0.2577,,,,,,,,,,,,,,
,,,,,,,,,,,,,,,,PUM24B,001,PUM24B,2023-12-11_08h45.56.377,Trial go no go,2020.2.10,Win32,60,,,space,1,0,26,26,12,1,X,space,0.2649,,,,,,,,,,,,,,
,,,,,,,,,,,,,,,,PUM24B,001,PUM24B,2023-12-11_08h45.56.377,Trial go no go,2020.2.10,Win32,60,,,space,1,0,27,27,33,1,X,space,0.266,,,,,,,,,,,,,,
,,,,,,,,,,,,,,,,PUM24B,001,PUM24B,2023-12-11_08h45.56.377,Trial go no go,2020.2.10,Win32,60,,,space,1,0,28,28,25,1,X,space,0.3347,,,,,,,,,,,,,,
,,,,,,,,,,,,,,,,PUM24B,001,PUM24B,2023-12-11_08h45.56.377,Trial go no go,2020.2.10,Win32,60,,,space,1,0,29,29,5,1,X,space,0.3021,,,,,,,,,,,,,,
,,,,,,,,,,,,,,,,PUM24B,001,PUM24B,2023-12-11_08h45.56.377,Trial go no go,2020.2.10,Win32,60,,,space,0,0,30,30,14,1,Y,none,0.3102,,,,,,,,,,,,,,
,,,,,,,,,,,,,,,,PUM24B,001,PUM24B,2023-12-11_08h45.56.377,Trial go no go,2020.2.10,Win32,60,,,,0,0,31,31,48,1,X,space,,,,,,,,,,,,,,,
,,,,,,,,,,,,,,,,PUM24B,001,PUM24B,2023-12-11_08h45.56.377,Trial go no go,2020.2.10,Win32,60,,,space,1,0,32,32,17,1,X,space,0.2509,,,,,,,,,,,,,,
,,,,,,,,,,,,,,,,PUM24B,001,PUM24B,2023-12-11_08h45.56.377,Trial go no go,2020.2.10,Win32,60,,,space,1,0,33,33,20,1,X,space,0.2792,,,,,,,,,,,,,,
,,,,,,,,,,,,,,,,PUM24B,001,PUM24B,2023-12-11_08h45.56.377,Trial go no go,2020.2.10,Win32,60,,,,1,0,34,34,49,1,E,none,,,,,,,,,,,,,,,
,,,,,,,,,,,,,,,,PUM24B,001,PUM24B,2023-12-11_08h45.56.377,Trial go no go,2020.2.10,Win32,60,,,,1,0,35,35,4,1,V,none,,,,,,,,,,,,,,,
,,,,,,,,,,,,,,,,PUM24B,001,PUM24B,2023-12-11_08h45.56.377,Trial go no go,2020.2.10,Win32,60,,,space,1,0,36,36,37,1,X,space,0.3201,,,,,,,,,,,,,,
,,,,,,,,,,,,,,,,PUM24B,001,PUM24B,2023-12-11_08h45.56.377,Trial go no go,2020.2.10,Win32,60,,,space,1,0,37,37,40,1,X,space,0.2809,,,,,,,,,,,,,,
,,,,,,,,,,,,,,,,PUM24B,001,PUM24B,2023-12-11_08h45.56.377,Trial go no go,2020.2.10,Win32,60,,,,1,0,38,38,39,1,M,none,,,,,,,,,,,,,,,
,,,,,,,,,,,,,,,,PUM24B,001,PUM24B,2023-12-11_08h45.56.377,Trial go no go,2020.2.10,Win32,60,,,space,1,0,39,39,18,1,X,space,0.2994,,,,,,,,,,,,,,
,,,,,,,,,,,,,,,,PUM24B,001,PUM24B,2023-12-11_08h45.56.377,Trial go no go,2020.2.10,Win32,60,,,,0,0,40,40,13,1,X,space,,,,,,,,,,,,,,,
,,,,,,,,,,,,,,,,PUM24B,001,PUM24B,2023-12-11_08h45.56.377,Trial go no go,2020.2.10,Win32,60,,,,0,0,41,41,8,1,X,space,,,,,,,,,,,,,,,
,,,,,,,,,,,,,,,,PUM24B,001,PUM24B,2023-12-11_08h45.56.377,Trial go no go,2020.2.10,Win32,60,,,space,1,0,42,42,22,1,X,space,0.0855,,,,,,,,,,,,,,
,,,,,,,,,,,,,,,,PUM24B,001,PUM24B,2023-12-11_08h45.56.377,Trial go no go,2020.2.10,Win32,60,,,space,1,0,43,43,15,1,X,space,0.3063,,,,,,,,,,,,,,
,,,,,,,,,,,,,,,,PUM24B,001,PUM24B,2023-12-11_08h45.56.377,Trial go no go,2020.2.10,Win32,60,,,space,1,0,44,44,11,1,X,space,0.2787,,,,,,,,,,,,,,
,,,,,,,,,,,,,,,,PUM24B,001,PUM24B,2023-12-11_08h45.56.377,Trial go no go,2020.2.10,Win32,60,,,space,1,0,45,45,32,1,X,space,0.1896,,,,,,,,,,,,,,
,,,,,,,,,,,,,,,,PUM24B,001,PUM24B,2023-12-11_08h45.56.377,Trial go no go,2020.2.10,Win32,60,,,space,1,0,46,46,47,1,X,space,0.2783,,,,,,,,,,,,,,
,,,,,,,,,,,,,,,,PUM24B,001,PUM24B,2023-12-11_08h45.56.377,Trial go no go,2020.2.10,Win32,60,,,space,0,0,47,47,9,1,W,none,0.2812,,,,,,,,,,,,,,
,,,,,,,,,,,,,,,,PUM24B,001,PUM24B,2023-12-11_08h45.56.377,Trial go no go,2020.2.10,Win32,60,,,,1,0,48,48,34,1,N,none,,,,,,,,,,,,,,,
,,,,,,,,,,,,,,,,PUM24B,001,PUM24B,2023-12-11_08h45.56.377,Trial go no go,2020.2.10,Win32,60,,,,0,0,49,49,36,1,X,space,,,,,,,,,,,,,,,
,,,,,,,,,,,,,,,,PUM24B,001,PUM24B,2023-12-11_08h45.56.377,Trial go no go,2020.2.10,Win32,60,,,,,,,,,,,,,z,14.4395,,0,0,0,0,1,1,E,space,,,
,,,,,,,,,,,,,,,,PUM24B,001,PUM24B,2023-12-11_08h45.56.377,Trial go no go,2020.2.10,Win32,60,,,,,,,,,,,,,,,space,1,0,1,1,38,1,E,space,0.375,,
,,,,,,,,,,,,,,,,PUM24B,001,PUM24B,2023-12-11_08h45.56.377,Trial go no go,2020.2.10,Win32,60,,,,,,,,,,,,,,,space,1,0,2,2,31,1,L,space,0.2545,,
,,,,,,,,,,,,,,,,PUM24B,001,PUM24B,2023-12-11_08h45.56.377,Trial go no go,2020.2.10,Win32,60,,,,,,,,,,,,,,,,1,0,3,3,24,1,X,none,,,
,,,,,,,,,,,,,,,,PUM24B,001,PUM24B,2023-12-11_08h45.56.377,Trial go no go,2020.2.10,Win32,60,,,,,,,,,,,,,,,space,1,0,4,4,5,1,Y,space,0.2016,,
,,,,,,,,,,,,,,,,PUM24B,001,PUM24B,2023-12-11_08h45.56.377,Trial go no go,2020.2.10,Win32,60,,,,,,,,,,,,,,,space,1,0,5,5,22,1,T,space,0.3335,,
,,,,,,,,,,,,,,,,PUM24B,001,PUM24B,2023-12-11_08h45.56.377,Trial go no go,2020.2.10,Win32,60,,,,,,,,,,,,,,,space,1,0,6,6,41,1,T,space,0.2592,,
,,,,,,,,,,,,,,,,PUM24B,001,PUM24B,2023-12-11_08h45.56.377,Trial go no go,2020.2.10,Win32,60,,,,,,,,,,,,,,,,0,0,7,7,3,1,T,space,,,
,,,,,,,,,,,,,,,,PUM24B,001,PUM24B,2023-12-11_08h45.56.377,Trial go no go,2020.2.10,Win32,60,,,,,,,,,,,,,,,space,1,0,8,8,11,1,K,space,0.257,,
,,,,,,,,,,,,,,,,PUM24B,001,PUM24B,2023-12-11_08h45.56.377,Trial go no go,2020.2.10,Win32,60,,,,,,,,,,,,,,,space,0,0,9,9,44,1,X,none,0.211,,
,,,,,,,,,,,,,,,,PUM24B,001,PUM24B,2023-12-11_08h45.56.377,Trial go no go,2020.2.10,Win32,60,,,,,,,,,,,,,,,,1,0,10,10,14,1,X,none,,,
,,,,,,,,,,,,,,,,PUM24B,001,PUM24B,2023-12-11_08h45.56.377,Trial go no go,2020.2.10,Win32,60,,,,,,,,,,,,,,,,0,0,11,11,35,1,N,space,,,
,,,,,,,,,,,,,,,,PUM24B,001,PUM24B,2023-12-11_08h45.56.377,Trial go no go,2020.2.10,Win32,60,,,,,,,,,,,,,,,space,1,0,12,12,32,1,Z,space,0.2373,,
,,,,,,,,,,,,,,,,PUM24B,001,PUM24B,2023-12-11_08h45.56.377,Trial go no go,2020.2.10,Win32,60,,,,,,,,,,,,,,,space,1,0,13,13,28,1,H,space,0.2699,,
,,,,,,,,,,,,,,,,PUM24B,001,PUM24B,2023-12-11_08h45.56.377,Trial go no go,2020.2.10,Win32,60,,,,,,,,,,,,,,,space,1,0,14,14,6,1,I,space,0.2554,,
,,,,,,,,,,,,,,,,PUM24B,001,PUM24B,2023-12-11_08h45.56.377,Trial go no go,2020.2.10,Win32,60,,,,,,,,,,,,,,,space,1,0,15,15,8,1,F,space,0.2584,,
,,,,,,,,,,,,,,,,PUM24B,001,PUM24B,2023-12-11_08h45.56.377,Trial go no go,2020.2.10,Win32,60,,,,,,,,,,,,,,,space,1,0,16,16,0,1,W,space,0.2736,,
,,,,,,,,,,,,,,,,PUM24B,001,PUM24B,2023-12-11_08h45.56.377,Trial go no go,2020.2.10,Win32,60,,,,,,,,,,,,,,,,0,0,17,17,33,1,V,space,,,
,,,,,,,,,,,,,,,,PUM24B,001,PUM24B,2023-12-11_08h45.56.377,Trial go no go,2020.2.10,Win32,60,,,,,,,,,,,,,,,,1,0,18,18,29,1,X,none,,,
,,,,,,,,,,,,,,,,PUM24B,001,PUM24B,2023-12-11_08h45.56.377,Trial go no go,2020.2.10,Win32,60,,,,,,,,,,,,,,,space,1,0,19,19,2,1,R,space,0.3323,,
,,,,,,,,,,,,,,,,PUM24B,001,PUM24B,2023-12-11_08h45.56.377,Trial go no go,2020.2.10,Win32,60,,,,,,,,,,,,,,,space,1,0,20,20,20,1,E,space,0.2256,,
,,,,,,,,,,,,,,,,PUM24B,001,PUM24B,2023-12-11_08h45.56.377,Trial go no go,2020.2.10,Win32,60,,,,,,,,,,,,,,,space,0,0,21,21,9,1,X,none,0.2111,,
,,,,,,,,,,,,,,,,PUM24B,001,PUM24B,2023-12-11_08h45.56.377,Trial go no go,2020.2.10,Win32,60,,,,,,,,,,,,,,,,1,0,22,22,4,1,X,none,,,
,,,,,,,,,,,,,,,,PUM24B,001,PUM24B,2023-12-11_08h45.56.377,Trial go no go,2020.2.10,Win32,60,,,,,,,,,,,,,,,,0,0,23,23,48,1,K,space,,,
,,,,,,,,,,,,,,,,PUM24B,001,PUM24B,2023-12-11_08h45.56.377,Trial go no go,2020.2.10,Win32,60,,,,,,,,,,,,,,,space,1,0,24,24,26,1,A,space,0.2186,,
,,,,,,,,,,,,,,,,PUM24B,001,PUM24B,2023-12-11_08h45.56.377,Trial go no go,2020.2.10,Win32,60,,,,,,,,,,,,,,,space,1,0,25,25,16,1,N,space,0.2287,,
,,,,,,,,,,,,,,,,PUM24B,001,PUM24B,2023-12-11_08h45.56.377,Trial go no go,2020.2.10,Win32,60,,,,,,,,,,,,,,,space,0,0,26,26,49,1,X,none,0.2395,,
,,,,,,,,,,,,,,,,PUM24B,001,PUM24B,2023-12-11_08h45.56.377,Trial go no go,2020.2.10,Win32,60,,,,,,,,,,,,,,,,1,0,27,27,19,1,X,none,,,
,,,,,,,,,,,,,,,,PUM24B,001,PUM24B,2023-12-11_08h45.56.377,Trial go no go,2020.2.10,Win32,60,,,,,,,,,,,,,,,,0,0,28,28,27,1,F,space,,,
,,,,,,,,,,,,,,,,PUM24B,001,PUM24B,2023-12-11_08h45.56.377,Trial go no go,2020.2.10,Win32,60,,,,,,,,,,,,,,,space,1,0,29,29,15,1,V,space,0.274,,
,,,,,,,,,,,,,,,,PUM24B,001,PUM24B,2023-12-11_08h45.56.377,Trial go no go,2020.2.10,Win32,60,,,,,,,,,,,,,,,space,1,0,30,30,42,1,Y,space,0.2854,,
,,,,,,,,,,,,,,,,PUM24B,001,PUM24B,2023-12-11_08h45.56.377,Trial go no go,2020.2.10,Win32,60,,,,,,,,,,,,,,,space,1,0,31,31,25,1,I,space,0.3498,,
,,,,,,,,,,,,,,,,PUM24B,001,PUM24B,2023-12-11_08h45.56.377,Trial go no go,2020.2.10,Win32,60,,,,,,,,,,,,,,,space,1,0,32,32,18,1,W,space,0.4157,,
,,,,,,,,,,,,,,,,PUM24B,001,PUM24B,2023-12-11_08h45.56.377,Trial go no go,2020.2.10,Win32,60,,,,,,,,,,,,,,,space,1,0,33,33,7,1,A,space,0.2616,,
,,,,,,,,,,,,,,,,PUM24B,001,PUM24B,2023-12-11_08h45.56.377,Trial go no go,2020.2.10,Win32,60,,,,,,,,,,,,,,,space,1,0,34,34,30,1,K,space,0.246,,
,,,,,,,,,,,,,,,,PUM24B,001,PUM24B,2023-12-11_08h45.56.377,Trial go no go,2020.2.10,Win32,60,,,,,,,,,,,,,,,space,1,0,35,35,43,1,I,space,0.2288,,
,,,,,,,,,,,,,,,,PUM24B,001,PUM24B,2023-12-11_08h45.56.377,Trial go no go,2020.2.10,Win32,60,,,,,,,,,,,,,,,space,1,0,36,36,40,1,R,space,0.2909,,
,,,,,,,,,,,,,,,,PUM24B,001,PUM24B,2023-12-11_08h45.56.377,Trial go no go,2020.2.10,Win32,60,,,,,,,,,,,,,,,space,1,0,37,37,37,1,W,space,0.3122,,
,,,,,,,,,,,,,,,,PUM24B,001,PUM24B,2023-12-11_08h45.56.377,Trial go no go,2020.2.10,Win32,60,,,,,,,,,,,,,,,,1,0,38,38,34,1,X,none,,,
,,,,,,,,,,,,,,,,PUM24B,001,PUM24B,2023-12-11_08h45.56.377,Trial go no go,2020.2.10,Win32,60,,,,,,,,,,,,,,,,1,0,39,39,39,1,X,none,,,
,,,,,,,,,,,,,,,,PUM24B,001,PUM24B,2023-12-11_08h45.56.377,Trial go no go,2020.2.10,Win32,60,,,,,,,,,,,,,,,space,1,0,40,40,12,1,L,space,0.3739,,
,,,,,,,,,,,,,,,,PUM24B,001,PUM24B,2023-12-11_08h45.56.377,Trial go no go,2020.2.10,Win32,60,,,,,,,,,,,,,,,space,1,0,41,41,47,1,H,space,0.2255,,
,,,,,,,,,,,,,,,,PUM24B,001,PUM24B,2023-12-11_08h45.56.377,Trial go no go,2020.2.10,Win32,60,,,,,,,,,,,,,,,space,1,0,42,42,45,1,A,space,0.214,,
,,,,,,,,,,,,,,,,PUM24B,001,PUM24B,2023-12-11_08h45.56.377,Trial go no go,2020.2.10,Win32,60,,,,,,,,,,,,,,,space,1,0,43,43,17,1,M,space,0.2503,,
,,,,,,,,,,,,,,,,PUM24B,001,PUM24B,2023-12-11_08h45.56.377,Trial go no go,2020.2.10,Win32,60,,,,,,,,,,,,,,,space,1,0,44,44,36,1,M,space,0.2509,,
,,,,,,,,,,,,,,,,PUM24B,001,PUM24B,2023-12-11_08h45.56.377,Trial go no go,2020.2.10,Win32,60,,,,,,,,,,,,,,,space,1,0,45,45,23,1,Y,space,0.2554,,
,,,,,,,,,,,,,,,,PUM24B,001,PUM24B,2023-12-11_08h45.56.377,Trial go no go,2020.2.10,Win32,60,,,,,,,,,,,,,,,space,1,0,46,46,10,1,H,space,0.278,,
,,,,,,,,,,,,,,,,PUM24B,001,PUM24B,2023-12-11_08h45.56.377,Trial go no go,2020.2.10,Win32,60,,,,,,,,,,,,,,,space,1,0,47,47,21,1,R,space,0.2987,,
,,,,,,,,,,,,,,,,PUM24B,001,PUM24B,2023-12-11_08h45.56.377,Trial go no go,2020.2.10,Win32,60,,,,,,,,,,,,,,,space,1,0,48,48,13,1,Z,space,0.2018,,
,,,,,,,,,,,,,,,,PUM24B,001,PUM24B,2023-12-11_08h45.56.377,Trial go no go,2020.2.10,Win32,60,,,,,,,,,,,,,,,space,1,0,49,49,46,1,F,space,0.16,,
,,,,,,,,,,,,,,,,PUM24B,001,PUM24B,2023-12-11_08h45.56.377,Trial go no go,2020.2.10,Win32,60,,,,,,,,,,,,,,,,,,,,,,,,,space,0.1466
