resp_Welcome.keys,resp_Welcome.rt,resp_Instr_Intro.keys,resp_Instr_Intro.rt,resp_Instr_Prac1.keys,resp_Instr_Prac1.rt,resp_trial_Prac1.keys,resp_trial_Prac1.corr,prac_trials.thisRepN,prac_trials.thisTrialN,prac_trials.thisN,prac_trials.thisIndex,prac_trials.ran,stimulus_prac1,corrAns_prac1,participant,session,indywidualny kod,date,expName,psychopyVersion,OS,frameRate,resp_trial_Prac1.rt,resp_Instr_Test1.keys,resp_Instr_Test1.rt,resp_trial_Test1.keys,resp_trial_Test1.corr,resp_trial_Test1.rt,test1trial.thisRepN,test1trial.thisTrialN,test1trial.thisN,test1trial.thisIndex,test1trial.ran,stimulus_test1,corrAns_test1,resp_Instr_Test2.keys,resp_Instr_Test2.rt,key_resp_Test2.keys,key_resp_Test2.corr,key_resp_Test2.rt,test2trial.thisRepN,test2trial.thisTrialN,test2trial.thisN,test2trial.thisIndex,test2trial.ran,stimulus_test2,corrAns_test2,resp_theEnd.keys,resp_theEnd.rt
space,34.2695,space,22.3147,space,8.7764,,1,0,0,0,14,1,K,none,PUM20K,001,PUM20K,2024-03-07_08h28.48.417,Trial go no go,2020.2.10,Win32,60,,,,,,,,,,,,,,,,,,,,,,,,,,,
,,,,,,space,1,0,1,1,8,1,X,space,PUM20K,001,PUM20K,2024-03-07_08h28.48.417,Trial go no go,2020.2.10,Win32,60,0.4957,,,,,,,,,,,,,,,,,,,,,,,,,,
,,,,,,space,1,0,2,2,7,1,X,space,PUM20K,001,PUM20K,2024-03-07_08h28.48.417,Trial go no go,2020.2.10,Win32,60,0.4339,,,,,,,,,,,,,,,,,,,,,,,,,,
,,,,,,space,1,0,3,3,6,1,X,space,PUM20K,001,PUM20K,2024-03-07_08h28.48.417,Trial go no go,2020.2.10,Win32,60,0.419,,,,,,,,,,,,,,,,,,,,,,,,,,
,,,,,,space,1,0,4,4,5,1,X,space,PUM20K,001,PUM20K,2024-03-07_08h28.48.417,Trial go no go,2020.2.10,Win32,60,0.5009,,,,,,,,,,,,,,,,,,,,,,,,,,
,,,,,,space,1,0,5,5,0,1,X,space,PUM20K,001,PUM20K,2024-03-07_08h28.48.417,Trial go no go,2020.2.10,Win32,60,0.4057,,,,,,,,,,,,,,,,,,,,,,,,,,
,,,,,,space,1,0,6,6,12,1,X,space,PUM20K,001,PUM20K,2024-03-07_08h28.48.417,Trial go no go,2020.2.10,Win32,60,0.4069,,,,,,,,,,,,,,,,,,,,,,,,,,
,,,,,,space,1,0,7,7,1,1,X,space,PUM20K,001,PUM20K,2024-03-07_08h28.48.417,Trial go no go,2020.2.10,Win32,60,0.392,,,,,,,,,,,,,,,,,,,,,,,,,,
,,,,,,space,1,0,8,8,11,1,X,space,PUM20K,001,PUM20K,2024-03-07_08h28.48.417,Trial go no go,2020.2.10,Win32,60,0.4094,,,,,,,,,,,,,,,,,,,,,,,,,,
,,,,,,space,1,0,9,9,3,1,X,space,PUM20K,001,PUM20K,2024-03-07_08h28.48.417,Trial go no go,2020.2.10,Win32,60,0.5069,,,,,,,,,,,,,,,,,,,,,,,,,,
,,,,,,,1,0,10,10,9,1,V,none,PUM20K,001,PUM20K,2024-03-07_08h28.48.417,Trial go no go,2020.2.10,Win32,60,,,,,,,,,,,,,,,,,,,,,,,,,,,
,,,,,,,1,0,11,11,4,1,W,none,PUM20K,001,PUM20K,2024-03-07_08h28.48.417,Trial go no go,2020.2.10,Win32,60,,,,,,,,,,,,,,,,,,,,,,,,,,,
,,,,,,space,1,0,12,12,2,1,X,space,PUM20K,001,PUM20K,2024-03-07_08h28.48.417,Trial go no go,2020.2.10,Win32,60,0.4672,,,,,,,,,,,,,,,,,,,,,,,,,,
,,,,,,space,1,0,13,13,10,1,X,space,PUM20K,001,PUM20K,2024-03-07_08h28.48.417,Trial go no go,2020.2.10,Win32,60,0.4174,,,,,,,,,,,,,,,,,,,,,,,,,,
,,,,,,space,1,0,14,14,13,1,X,space,PUM20K,001,PUM20K,2024-03-07_08h28.48.417,Trial go no go,2020.2.10,Win32,60,0.484,,,,,,,,,,,,,,,,,,,,,,,,,,
,,,,,,,,,,,,,,,PUM20K,001,PUM20K,2024-03-07_08h28.48.417,Trial go no go,2020.2.10,Win32,60,,space,6.1168,space,1,0.4087,0,0,0,45,1,X,space,,,,,,,,,,,,,,
,,,,,,,,,,,,,,,PUM20K,001,PUM20K,2024-03-07_08h28.48.417,Trial go no go,2020.2.10,Win32,60,,,,,0,,0,1,1,0,1,X,space,,,,,,,,,,,,,,
,,,,,,,,,,,,,,,PUM20K,001,PUM20K,2024-03-07_08h28.48.417,Trial go no go,2020.2.10,Win32,60,,,,space,0,0.0709,0,2,2,9,1,W,none,,,,,,,,,,,,,,
,,,,,,,,,,,,,,,PUM20K,001,PUM20K,2024-03-07_08h28.48.417,Trial go no go,2020.2.10,Win32,60,,,,space,1,0.2703,0,3,3,46,1,X,space,,,,,,,,,,,,,,
,,,,,,,,,,,,,,,PUM20K,001,PUM20K,2024-03-07_08h28.48.417,Trial go no go,2020.2.10,Win32,60,,,,space,1,0.3738,0,4,4,28,1,X,space,,,,,,,,,,,,,,
,,,,,,,,,,,,,,,PUM20K,001,PUM20K,2024-03-07_08h28.48.417,Trial go no go,2020.2.10,Win32,60,,,,space,1,0.2838,0,5,5,17,1,X,space,,,,,,,,,,,,,,
,,,,,,,,,,,,,,,PUM20K,001,PUM20K,2024-03-07_08h28.48.417,Trial go no go,2020.2.10,Win32,60,,,,space,1,0.2912,0,6,6,36,1,X,space,,,,,,,,,,,,,,
,,,,,,,,,,,,,,,PUM20K,001,PUM20K,2024-03-07_08h28.48.417,Trial go no go,2020.2.10,Win32,60,,,,,1,,0,7,7,39,1,M,none,,,,,,,,,,,,,,
,,,,,,,,,,,,,,,PUM20K,001,PUM20K,2024-03-07_08h28.48.417,Trial go no go,2020.2.10,Win32,60,,,,space,1,0.3501,0,8,8,31,1,X,space,,,,,,,,,,,,,,
,,,,,,,,,,,,,,,PUM20K,001,PUM20K,2024-03-07_08h28.48.417,Trial go no go,2020.2.10,Win32,60,,,,space,1,0.3172,0,9,9,42,1,X,space,,,,,,,,,,,,,,
,,,,,,,,,,,,,,,PUM20K,001,PUM20K,2024-03-07_08h28.48.417,Trial go no go,2020.2.10,Win32,60,,,,space,1,0.3199,0,10,10,33,1,X,space,,,,,,,,,,,,,,
,,,,,,,,,,,,,,,PUM20K,001,PUM20K,2024-03-07_08h28.48.417,Trial go no go,2020.2.10,Win32,60,,,,,1,,0,11,11,44,1,F,none,,,,,,,,,,,,,,
,,,,,,,,,,,,,,,PUM20K,001,PUM20K,2024-03-07_08h28.48.417,Trial go no go,2020.2.10,Win32,60,,,,space,1,0.2849,0,12,12,47,1,X,space,,,,,,,,,,,,,,
,,,,,,,,,,,,,,,PUM20K,001,PUM20K,2024-03-07_08h28.48.417,Trial go no go,2020.2.10,Win32,60,,,,,1,,0,13,13,34,1,N,none,,,,,,,,,,,,,,
,,,,,,,,,,,,,,,PUM20K,001,PUM20K,2024-03-07_08h28.48.417,Trial go no go,2020.2.10,Win32,60,,,,space,1,0.3003,0,14,14,23,1,X,space,,,,,,,,,,,,,,
,,,,,,,,,,,,,,,PUM20K,001,PUM20K,2024-03-07_08h28.48.417,Trial go no go,2020.2.10,Win32,60,,,,space,1,0.3701,0,15,15,25,1,X,space,,,,,,,,,,,,,,
,,,,,,,,,,,,,,,PUM20K,001,PUM20K,2024-03-07_08h28.48.417,Trial go no go,2020.2.10,Win32,60,,,,space,1,0.3449,0,16,16,32,1,X,space,,,,,,,,,,,,,,
,,,,,,,,,,,,,,,PUM20K,001,PUM20K,2024-03-07_08h28.48.417,Trial go no go,2020.2.10,Win32,60,,,,space,1,0.3208,0,17,17,21,1,X,space,,,,,,,,,,,,,,
,,,,,,,,,,,,,,,PUM20K,001,PUM20K,2024-03-07_08h28.48.417,Trial go no go,2020.2.10,Win32,60,,,,,1,,0,18,18,49,1,E,none,,,,,,,,,,,,,,
,,,,,,,,,,,,,,,PUM20K,001,PUM20K,2024-03-07_08h28.48.417,Trial go no go,2020.2.10,Win32,60,,,,,1,,0,19,19,19,1,K,none,,,,,,,,,,,,,,
,,,,,,,,,,,,,,,PUM20K,001,PUM20K,2024-03-07_08h28.48.417,Trial go no go,2020.2.10,Win32,60,,,,,1,,0,20,20,24,1,H,none,,,,,,,,,,,,,,
,,,,,,,,,,,,,,,PUM20K,001,PUM20K,2024-03-07_08h28.48.417,Trial go no go,2020.2.10,Win32,60,,,,space,1,0.4768,0,21,21,6,1,X,space,,,,,,,,,,,,,,
,,,,,,,,,,,,,,,PUM20K,001,PUM20K,2024-03-07_08h28.48.417,Trial go no go,2020.2.10,Win32,60,,,,space,1,0.2918,0,22,22,10,1,X,space,,,,,,,,,,,,,,
,,,,,,,,,,,,,,,PUM20K,001,PUM20K,2024-03-07_08h28.48.417,Trial go no go,2020.2.10,Win32,60,,,,space,1,0.3338,0,23,23,12,1,X,space,,,,,,,,,,,,,,
,,,,,,,,,,,,,,,PUM20K,001,PUM20K,2024-03-07_08h28.48.417,Trial go no go,2020.2.10,Win32,60,,,,space,1,0.3217,0,24,24,35,1,X,space,,,,,,,,,,,,,,
,,,,,,,,,,,,,,,PUM20K,001,PUM20K,2024-03-07_08h28.48.417,Trial go no go,2020.2.10,Win32,60,,,,space,1,0.3767,0,25,25,16,1,X,space,,,,,,,,,,,,,,
,,,,,,,,,,,,,,,PUM20K,001,PUM20K,2024-03-07_08h28.48.417,Trial go no go,2020.2.10,Win32,60,,,,space,1,0.3363,0,26,26,7,1,X,space,,,,,,,,,,,,,,
,,,,,,,,,,,,,,,PUM20K,001,PUM20K,2024-03-07_08h28.48.417,Trial go no go,2020.2.10,Win32,60,,,,space,1,0.3434,0,27,27,40,1,X,space,,,,,,,,,,,,,,
,,,,,,,,,,,,,,,PUM20K,001,PUM20K,2024-03-07_08h28.48.417,Trial go no go,2020.2.10,Win32,60,,,,space,1,0.3343,0,28,28,18,1,X,space,,,,,,,,,,,,,,
,,,,,,,,,,,,,,,PUM20K,001,PUM20K,2024-03-07_08h28.48.417,Trial go no go,2020.2.10,Win32,60,,,,,1,,0,29,29,4,1,V,none,,,,,,,,,,,,,,
,,,,,,,,,,,,,,,PUM20K,001,PUM20K,2024-03-07_08h28.48.417,Trial go no go,2020.2.10,Win32,60,,,,space,1,0.3001,0,30,30,27,1,X,space,,,,,,,,,,,,,,
,,,,,,,,,,,,,,,PUM20K,001,PUM20K,2024-03-07_08h28.48.417,Trial go no go,2020.2.10,Win32,60,,,,space,1,0.3073,0,31,31,1,1,X,space,,,,,,,,,,,,,,
,,,,,,,,,,,,,,,PUM20K,001,PUM20K,2024-03-07_08h28.48.417,Trial go no go,2020.2.10,Win32,60,,,,,1,,0,32,32,14,1,Y,none,,,,,,,,,,,,,,
,,,,,,,,,,,,,,,PUM20K,001,PUM20K,2024-03-07_08h28.48.417,Trial go no go,2020.2.10,Win32,60,,,,space,1,0.2729,0,33,33,20,1,X,space,,,,,,,,,,,,,,
,,,,,,,,,,,,,,,PUM20K,001,PUM20K,2024-03-07_08h28.48.417,Trial go no go,2020.2.10,Win32,60,,,,,0,,0,34,34,2,1,X,space,,,,,,,,,,,,,,
,,,,,,,,,,,,,,,PUM20K,001,PUM20K,2024-03-07_08h28.48.417,Trial go no go,2020.2.10,Win32,60,,,,space,1,0.336,0,35,35,3,1,X,space,,,,,,,,,,,,,,
,,,,,,,,,,,,,,,PUM20K,001,PUM20K,2024-03-07_08h28.48.417,Trial go no go,2020.2.10,Win32,60,,,,space,1,0.3271,0,36,36,26,1,X,space,,,,,,,,,,,,,,
,,,,,,,,,,,,,,,PUM20K,001,PUM20K,2024-03-07_08h28.48.417,Trial go no go,2020.2.10,Win32,60,,,,space,1,0.3501,0,37,37,38,1,X,space,,,,,,,,,,,,,,
,,,,,,,,,,,,,,,PUM20K,001,PUM20K,2024-03-07_08h28.48.417,Trial go no go,2020.2.10,Win32,60,,,,space,1,0.5504,0,38,38,41,1,X,space,,,,,,,,,,,,,,
,,,,,,,,,,,,,,,PUM20K,001,PUM20K,2024-03-07_08h28.48.417,Trial go no go,2020.2.10,Win32,60,,,,,0,,0,39,39,15,1,X,space,,,,,,,,,,,,,,
,,,,,,,,,,,,,,,PUM20K,001,PUM20K,2024-03-07_08h28.48.417,Trial go no go,2020.2.10,Win32,60,,,,space,1,0.3065,0,40,40,11,1,X,space,,,,,,,,,,,,,,
,,,,,,,,,,,,,,,PUM20K,001,PUM20K,2024-03-07_08h28.48.417,Trial go no go,2020.2.10,Win32,60,,,,space,1,0.3613,0,41,41,8,1,X,space,,,,,,,,,,,,,,
,,,,,,,,,,,,,,,PUM20K,001,PUM20K,2024-03-07_08h28.48.417,Trial go no go,2020.2.10,Win32,60,,,,space,1,0.3531,0,42,42,5,1,X,space,,,,,,,,,,,,,,
,,,,,,,,,,,,,,,PUM20K,001,PUM20K,2024-03-07_08h28.48.417,Trial go no go,2020.2.10,Win32,60,,,,space,1,0.4075,0,43,43,30,1,X,space,,,,,,,,,,,,,,
,,,,,,,,,,,,,,,PUM20K,001,PUM20K,2024-03-07_08h28.48.417,Trial go no go,2020.2.10,Win32,60,,,,space,1,0.3834,0,44,44,22,1,X,space,,,,,,,,,,,,,,
,,,,,,,,,,,,,,,PUM20K,001,PUM20K,2024-03-07_08h28.48.417,Trial go no go,2020.2.10,Win32,60,,,,space,1,0.3834,0,45,45,13,1,X,space,,,,,,,,,,,,,,
,,,,,,,,,,,,,,,PUM20K,001,PUM20K,2024-03-07_08h28.48.417,Trial go no go,2020.2.10,Win32,60,,,,space,1,0.4002,0,46,46,43,1,X,space,,,,,,,,,,,,,,
,,,,,,,,,,,,,,,PUM20K,001,PUM20K,2024-03-07_08h28.48.417,Trial go no go,2020.2.10,Win32,60,,,,space,1,0.3561,0,47,47,37,1,X,space,,,,,,,,,,,,,,
,,,,,,,,,,,,,,,PUM20K,001,PUM20K,2024-03-07_08h28.48.417,Trial go no go,2020.2.10,Win32,60,,,,,1,,0,48,48,29,1,T,none,,,,,,,,,,,,,,
,,,,,,,,,,,,,,,PUM20K,001,PUM20K,2024-03-07_08h28.48.417,Trial go no go,2020.2.10,Win32,60,,,,space,1,0.3213,0,49,49,48,1,X,space,,,,,,,,,,,,,,
,,,,,,,,,,,,,,,PUM20K,001,PUM20K,2024-03-07_08h28.48.417,Trial go no go,2020.2.10,Win32,60,,,,,,,,,,,,,,z,9.7048,space,1,0.762,0,0,0,25,1,I,space,,
,,,,,,,,,,,,,,,PUM20K,001,PUM20K,2024-03-07_08h28.48.417,Trial go no go,2020.2.10,Win32,60,,,,,,,,,,,,,,,,space,1,0.5771,0,1,1,6,1,I,space,,
,,,,,,,,,,,,,,,PUM20K,001,PUM20K,2024-03-07_08h28.48.417,Trial go no go,2020.2.10,Win32,60,,,,,,,,,,,,,,,,space,1,0.4879,0,2,2,2,1,R,space,,
,,,,,,,,,,,,,,,PUM20K,001,PUM20K,2024-03-07_08h28.48.417,Trial go no go,2020.2.10,Win32,60,,,,,,,,,,,,,,,,,1,,0,3,3,29,1,X,none,,
,,,,,,,,,,,,,,,PUM20K,001,PUM20K,2024-03-07_08h28.48.417,Trial go no go,2020.2.10,Win32,60,,,,,,,,,,,,,,,,space,1,0.406,0,4,4,38,1,E,space,,
,,,,,,,,,,,,,,,PUM20K,001,PUM20K,2024-03-07_08h28.48.417,Trial go no go,2020.2.10,Win32,60,,,,,,,,,,,,,,,,,1,,0,5,5,24,1,X,none,,
,,,,,,,,,,,,,,,PUM20K,001,PUM20K,2024-03-07_08h28.48.417,Trial go no go,2020.2.10,Win32,60,,,,,,,,,,,,,,,,space,1,0.4197,0,6,6,35,1,N,space,,
,,,,,,,,,,,,,,,PUM20K,001,PUM20K,2024-03-07_08h28.48.417,Trial go no go,2020.2.10,Win32,60,,,,,,,,,,,,,,,,space,1,0.3787,0,7,7,36,1,M,space,,
,,,,,,,,,,,,,,,PUM20K,001,PUM20K,2024-03-07_08h28.48.417,Trial go no go,2020.2.10,Win32,60,,,,,,,,,,,,,,,,space,1,0.3378,0,8,8,28,1,H,space,,
,,,,,,,,,,,,,,,PUM20K,001,PUM20K,2024-03-07_08h28.48.417,Trial go no go,2020.2.10,Win32,60,,,,,,,,,,,,,,,,space,0,0.3002,0,9,9,9,1,X,none,,
,,,,,,,,,,,,,,,PUM20K,001,PUM20K,2024-03-07_08h28.48.417,Trial go no go,2020.2.10,Win32,60,,,,,,,,,,,,,,,,space,1,0.3676,0,10,10,21,1,R,space,,
,,,,,,,,,,,,,,,PUM20K,001,PUM20K,2024-03-07_08h28.48.417,Trial go no go,2020.2.10,Win32,60,,,,,,,,,,,,,,,,,1,,0,11,11,19,1,X,none,,
,,,,,,,,,,,,,,,PUM20K,001,PUM20K,2024-03-07_08h28.48.417,Trial go no go,2020.2.10,Win32,60,,,,,,,,,,,,,,,,space,1,0.3667,0,12,12,12,1,L,space,,
,,,,,,,,,,,,,,,PUM20K,001,PUM20K,2024-03-07_08h28.48.417,Trial go no go,2020.2.10,Win32,60,,,,,,,,,,,,,,,,space,1,0.4208,0,13,13,7,1,A,space,,
,,,,,,,,,,,,,,,PUM20K,001,PUM20K,2024-03-07_08h28.48.417,Trial go no go,2020.2.10,Win32,60,,,,,,,,,,,,,,,,,1,,0,14,14,14,1,X,none,,
,,,,,,,,,,,,,,,PUM20K,001,PUM20K,2024-03-07_08h28.48.417,Trial go no go,2020.2.10,Win32,60,,,,,,,,,,,,,,,,space,1,0.3836,0,15,15,3,1,T,space,,
,,,,,,,,,,,,,,,PUM20K,001,PUM20K,2024-03-07_08h28.48.417,Trial go no go,2020.2.10,Win32,60,,,,,,,,,,,,,,,,space,1,0.3778,0,16,16,30,1,K,space,,
,,,,,,,,,,,,,,,PUM20K,001,PUM20K,2024-03-07_08h28.48.417,Trial go no go,2020.2.10,Win32,60,,,,,,,,,,,,,,,,space,1,0.3376,0,17,17,23,1,Y,space,,
,,,,,,,,,,,,,,,PUM20K,001,PUM20K,2024-03-07_08h28.48.417,Trial go no go,2020.2.10,Win32,60,,,,,,,,,,,,,,,,space,1,0.4415,0,18,18,42,1,Y,space,,
,,,,,,,,,,,,,,,PUM20K,001,PUM20K,2024-03-07_08h28.48.417,Trial go no go,2020.2.10,Win32,60,,,,,,,,,,,,,,,,space,1,0.3515,0,19,19,41,1,T,space,,
,,,,,,,,,,,,,,,PUM20K,001,PUM20K,2024-03-07_08h28.48.417,Trial go no go,2020.2.10,Win32,60,,,,,,,,,,,,,,,,space,1,0.3746,0,20,20,13,1,Z,space,,
,,,,,,,,,,,,,,,PUM20K,001,PUM20K,2024-03-07_08h28.48.417,Trial go no go,2020.2.10,Win32,60,,,,,,,,,,,,,,,,space,1,0.3337,0,21,21,32,1,Z,space,,
,,,,,,,,,,,,,,,PUM20K,001,PUM20K,2024-03-07_08h28.48.417,Trial go no go,2020.2.10,Win32,60,,,,,,,,,,,,,,,,space,1,0.4045,0,22,22,48,1,K,space,,
,,,,,,,,,,,,,,,PUM20K,001,PUM20K,2024-03-07_08h28.48.417,Trial go no go,2020.2.10,Win32,60,,,,,,,,,,,,,,,,space,1,0.3004,0,23,23,11,1,K,space,,
,,,,,,,,,,,,,,,PUM20K,001,PUM20K,2024-03-07_08h28.48.417,Trial go no go,2020.2.10,Win32,60,,,,,,,,,,,,,,,,space,0,0.2906,0,24,24,39,1,X,none,,
,,,,,,,,,,,,,,,PUM20K,001,PUM20K,2024-03-07_08h28.48.417,Trial go no go,2020.2.10,Win32,60,,,,,,,,,,,,,,,,space,1,0.3775,0,25,25,46,1,F,space,,
,,,,,,,,,,,,,,,PUM20K,001,PUM20K,2024-03-07_08h28.48.417,Trial go no go,2020.2.10,Win32,60,,,,,,,,,,,,,,,,space,1,0.4501,0,26,26,16,1,N,space,,
,,,,,,,,,,,,,,,PUM20K,001,PUM20K,2024-03-07_08h28.48.417,Trial go no go,2020.2.10,Win32,60,,,,,,,,,,,,,,,,space,1,0.3596,0,27,27,37,1,W,space,,
,,,,,,,,,,,,,,,PUM20K,001,PUM20K,2024-03-07_08h28.48.417,Trial go no go,2020.2.10,Win32,60,,,,,,,,,,,,,,,,space,1,0.3026,0,28,28,0,1,W,space,,
,,,,,,,,,,,,,,,PUM20K,001,PUM20K,2024-03-07_08h28.48.417,Trial go no go,2020.2.10,Win32,60,,,,,,,,,,,,,,,,space,1,0.3578,0,29,29,15,1,V,space,,
,,,,,,,,,,,,,,,PUM20K,001,PUM20K,2024-03-07_08h28.48.417,Trial go no go,2020.2.10,Win32,60,,,,,,,,,,,,,,,,space,1,0.3835,0,30,30,5,1,Y,space,,
,,,,,,,,,,,,,,,PUM20K,001,PUM20K,2024-03-07_08h28.48.417,Trial go no go,2020.2.10,Win32,60,,,,,,,,,,,,,,,,,1,,0,31,31,44,1,X,none,,
,,,,,,,,,,,,,,,PUM20K,001,PUM20K,2024-03-07_08h28.48.417,Trial go no go,2020.2.10,Win32,60,,,,,,,,,,,,,,,,,1,,0,32,32,4,1,X,none,,
,,,,,,,,,,,,,,,PUM20K,001,PUM20K,2024-03-07_08h28.48.417,Trial go no go,2020.2.10,Win32,60,,,,,,,,,,,,,,,,space,1,0.3375,0,33,33,26,1,A,space,,
,,,,,,,,,,,,,,,PUM20K,001,PUM20K,2024-03-07_08h28.48.417,Trial go no go,2020.2.10,Win32,60,,,,,,,,,,,,,,,,space,1,0.2834,0,34,34,8,1,F,space,,
,,,,,,,,,,,,,,,PUM20K,001,PUM20K,2024-03-07_08h28.48.417,Trial go no go,2020.2.10,Win32,60,,,,,,,,,,,,,,,,space,1,0.3202,0,35,35,17,1,M,space,,
,,,,,,,,,,,,,,,PUM20K,001,PUM20K,2024-03-07_08h28.48.417,Trial go no go,2020.2.10,Win32,60,,,,,,,,,,,,,,,,space,1,0.2953,0,36,36,20,1,E,space,,
,,,,,,,,,,,,,,,PUM20K,001,PUM20K,2024-03-07_08h28.48.417,Trial go no go,2020.2.10,Win32,60,,,,,,,,,,,,,,,,space,1,0.3501,0,37,37,33,1,V,space,,
,,,,,,,,,,,,,,,PUM20K,001,PUM20K,2024-03-07_08h28.48.417,Trial go no go,2020.2.10,Win32,60,,,,,,,,,,,,,,,,space,1,0.3254,0,38,38,27,1,F,space,,
,,,,,,,,,,,,,,,PUM20K,001,PUM20K,2024-03-07_08h28.48.417,Trial go no go,2020.2.10,Win32,60,,,,,,,,,,,,,,,,space,1,0.3336,0,39,39,40,1,R,space,,
,,,,,,,,,,,,,,,PUM20K,001,PUM20K,2024-03-07_08h28.48.417,Trial go no go,2020.2.10,Win32,60,,,,,,,,,,,,,,,,space,1,0.3234,0,40,40,1,1,E,space,,
,,,,,,,,,,,,,,,PUM20K,001,PUM20K,2024-03-07_08h28.48.417,Trial go no go,2020.2.10,Win32,60,,,,,,,,,,,,,,,,space,0,0.3165,0,41,41,34,1,X,none,,
,,,,,,,,,,,,,,,PUM20K,001,PUM20K,2024-03-07_08h28.48.417,Trial go no go,2020.2.10,Win32,60,,,,,,,,,,,,,,,,space,1,0.3532,0,42,42,22,1,T,space,,
,,,,,,,,,,,,,,,PUM20K,001,PUM20K,2024-03-07_08h28.48.417,Trial go no go,2020.2.10,Win32,60,,,,,,,,,,,,,,,,space,1,0.3669,0,43,43,45,1,A,space,,
,,,,,,,,,,,,,,,PUM20K,001,PUM20K,2024-03-07_08h28.48.417,Trial go no go,2020.2.10,Win32,60,,,,,,,,,,,,,,,,space,1,0.3513,0,44,44,43,1,I,space,,
,,,,,,,,,,,,,,,PUM20K,001,PUM20K,2024-03-07_08h28.48.417,Trial go no go,2020.2.10,Win32,60,,,,,,,,,,,,,,,,space,1,0.3422,0,45,45,31,1,L,space,,
,,,,,,,,,,,,,,,PUM20K,001,PUM20K,2024-03-07_08h28.48.417,Trial go no go,2020.2.10,Win32,60,,,,,,,,,,,,,,,,space,1,0.3335,0,46,46,47,1,H,space,,
,,,,,,,,,,,,,,,PUM20K,001,PUM20K,2024-03-07_08h28.48.417,Trial go no go,2020.2.10,Win32,60,,,,,,,,,,,,,,,,space,1,0.4683,0,47,47,18,1,W,space,,
,,,,,,,,,,,,,,,PUM20K,001,PUM20K,2024-03-07_08h28.48.417,Trial go no go,2020.2.10,Win32,60,,,,,,,,,,,,,,,,,1,,0,48,48,49,1,X,none,,
,,,,,,,,,,,,,,,PUM20K,001,PUM20K,2024-03-07_08h28.48.417,Trial go no go,2020.2.10,Win32,60,,,,,,,,,,,,,,,,space,1,0.3702,0,49,49,10,1,H,space,,
,,,,,,,,,,,,,,,PUM20K,001,PUM20K,2024-03-07_08h28.48.417,Trial go no go,2020.2.10,Win32,60,,,,,,,,,,,,,,,,,,,,,,,,,,space,18.8898
