resp_Welcome.keys,resp_Welcome.rt,resp_Instr_Intro.keys,resp_Instr_Intro.rt,resp_Instr_Prac1.keys,resp_Instr_Prac1.rt,resp_trial_Prac1.keys,resp_trial_Prac1.corr,resp_trial_Prac1.rt,prac_trials.thisRepN,prac_trials.thisTrialN,prac_trials.thisN,prac_trials.thisIndex,prac_trials.ran,stimulus_prac1,corrAns_prac1,participant,session,indywidualny kod,date,expName,psychopyVersion,OS,frameRate,resp_Instr_Test1.keys,resp_Instr_Test1.rt,resp_trial_Test1.keys,resp_trial_Test1.corr,resp_trial_Test1.rt,test1trial.thisRepN,test1trial.thisTrialN,test1trial.thisN,test1trial.thisIndex,test1trial.ran,stimulus_test1,corrAns_test1,resp_Instr_Test2.keys,resp_Instr_Test2.rt,key_resp_Test2.keys,key_resp_Test2.corr,test2trial.thisRepN,test2trial.thisTrialN,test2trial.thisN,test2trial.thisIndex,test2trial.ran,stimulus_test2,corrAns_test2,key_resp_Test2.rt,resp_theEnd.keys,resp_theEnd.rt
space,9.6262,space,24.7878,space,12.3863,space,1,0.6068,0,0,0,1,1,X,space,WRO106,001,,2024-05-28_07h40.11.854,Trial go no go,2020.2.10,MacIntel,60,,,,,,,,,,,,,,,,,,,,,,,,,,
,,,,,,space,1,0.6167,0,1,1,11,1,X,space,WRO106,001,,2024-05-28_07h40.11.854,Trial go no go,2020.2.10,MacIntel,60,,,,,,,,,,,,,,,,,,,,,,,,,,
,,,,,,space,1,0.5165,0,2,2,6,1,X,space,WRO106,001,,2024-05-28_07h40.11.854,Trial go no go,2020.2.10,MacIntel,60,,,,,,,,,,,,,,,,,,,,,,,,,,
,,,,,,space,1,0.5489,0,3,3,12,1,X,space,WRO106,001,,2024-05-28_07h40.11.854,Trial go no go,2020.2.10,MacIntel,60,,,,,,,,,,,,,,,,,,,,,,,,,,
,,,,,,,1,,0,4,4,4,1,W,none,WRO106,001,,2024-05-28_07h40.11.854,Trial go no go,2020.2.10,MacIntel,60,,,,,,,,,,,,,,,,,,,,,,,,,,
,,,,,,space,1,0.4528,0,5,5,8,1,X,space,WRO106,001,,2024-05-28_07h40.11.854,Trial go no go,2020.2.10,MacIntel,60,,,,,,,,,,,,,,,,,,,,,,,,,,
,,,,,,space,1,0.4731,0,6,6,13,1,X,space,WRO106,001,,2024-05-28_07h40.11.854,Trial go no go,2020.2.10,MacIntel,60,,,,,,,,,,,,,,,,,,,,,,,,,,
,,,,,,,1,,0,7,7,9,1,V,none,WRO106,001,,2024-05-28_07h40.11.854,Trial go no go,2020.2.10,MacIntel,60,,,,,,,,,,,,,,,,,,,,,,,,,,
,,,,,,space,1,0.4462,0,8,8,2,1,X,space,WRO106,001,,2024-05-28_07h40.11.854,Trial go no go,2020.2.10,MacIntel,60,,,,,,,,,,,,,,,,,,,,,,,,,,
,,,,,,space,1,0.6251,0,9,9,0,1,X,space,WRO106,001,,2024-05-28_07h40.11.854,Trial go no go,2020.2.10,MacIntel,60,,,,,,,,,,,,,,,,,,,,,,,,,,
,,,,,,space,1,0.7327,0,10,10,5,1,X,space,WRO106,001,,2024-05-28_07h40.11.854,Trial go no go,2020.2.10,MacIntel,60,,,,,,,,,,,,,,,,,,,,,,,,,,
,,,,,,space,1,0.499,0,11,11,3,1,X,space,WRO106,001,,2024-05-28_07h40.11.854,Trial go no go,2020.2.10,MacIntel,60,,,,,,,,,,,,,,,,,,,,,,,,,,
,,,,,,space,1,0.4572,0,12,12,10,1,X,space,WRO106,001,,2024-05-28_07h40.11.854,Trial go no go,2020.2.10,MacIntel,60,,,,,,,,,,,,,,,,,,,,,,,,,,
,,,,,,space,1,0.4754,0,13,13,7,1,X,space,WRO106,001,,2024-05-28_07h40.11.854,Trial go no go,2020.2.10,MacIntel,60,,,,,,,,,,,,,,,,,,,,,,,,,,
,,,,,,,1,,0,14,14,14,1,K,none,WRO106,001,,2024-05-28_07h40.11.854,Trial go no go,2020.2.10,MacIntel,60,,,,,,,,,,,,,,,,,,,,,,,,,,
,,,,,,,,,,,,,,,,WRO106,001,,2024-05-28_07h40.11.854,Trial go no go,2020.2.10,MacIntel,60,space,4.4337,space,1,0.5255,0,0,0,25,1,X,space,,,,,,,,,,,,,,
,,,,,,,,,,,,,,,,WRO106,001,,2024-05-28_07h40.11.854,Trial go no go,2020.2.10,MacIntel,60,,,space,1,0.6183,0,1,1,28,1,X,space,,,,,,,,,,,,,,
,,,,,,,,,,,,,,,,WRO106,001,,2024-05-28_07h40.11.854,Trial go no go,2020.2.10,MacIntel,60,,,,1,,0,2,2,34,1,N,none,,,,,,,,,,,,,,
,,,,,,,,,,,,,,,,WRO106,001,,2024-05-28_07h40.11.854,Trial go no go,2020.2.10,MacIntel,60,,,space,1,0.314,0,3,3,11,1,X,space,,,,,,,,,,,,,,
,,,,,,,,,,,,,,,,WRO106,001,,2024-05-28_07h40.11.854,Trial go no go,2020.2.10,MacIntel,60,,,space,1,0.3595,0,4,4,37,1,X,space,,,,,,,,,,,,,,
,,,,,,,,,,,,,,,,WRO106,001,,2024-05-28_07h40.11.854,Trial go no go,2020.2.10,MacIntel,60,,,space,1,0.3067,0,5,5,48,1,X,space,,,,,,,,,,,,,,
,,,,,,,,,,,,,,,,WRO106,001,,2024-05-28_07h40.11.854,Trial go no go,2020.2.10,MacIntel,60,,,,1,,0,6,6,19,1,K,none,,,,,,,,,,,,,,
,,,,,,,,,,,,,,,,WRO106,001,,2024-05-28_07h40.11.854,Trial go no go,2020.2.10,MacIntel,60,,,space,1,0.387,0,7,7,38,1,X,space,,,,,,,,,,,,,,
,,,,,,,,,,,,,,,,WRO106,001,,2024-05-28_07h40.11.854,Trial go no go,2020.2.10,MacIntel,60,,,space,1,0.6425,0,8,8,41,1,X,space,,,,,,,,,,,,,,
,,,,,,,,,,,,,,,,WRO106,001,,2024-05-28_07h40.11.854,Trial go no go,2020.2.10,MacIntel,60,,,,1,,0,9,9,44,1,F,none,,,,,,,,,,,,,,
,,,,,,,,,,,,,,,,WRO106,001,,2024-05-28_07h40.11.854,Trial go no go,2020.2.10,MacIntel,60,,,space,1,0.4124,0,10,10,8,1,X,space,,,,,,,,,,,,,,
,,,,,,,,,,,,,,,,WRO106,001,,2024-05-28_07h40.11.854,Trial go no go,2020.2.10,MacIntel,60,,,space,1,0.4282,0,11,11,32,1,X,space,,,,,,,,,,,,,,
,,,,,,,,,,,,,,,,WRO106,001,,2024-05-28_07h40.11.854,Trial go no go,2020.2.10,MacIntel,60,,,space,1,0.3239,0,12,12,0,1,X,space,,,,,,,,,,,,,,
,,,,,,,,,,,,,,,,WRO106,001,,2024-05-28_07h40.11.854,Trial go no go,2020.2.10,MacIntel,60,,,space,1,0.3587,0,13,13,15,1,X,space,,,,,,,,,,,,,,
,,,,,,,,,,,,,,,,WRO106,001,,2024-05-28_07h40.11.854,Trial go no go,2020.2.10,MacIntel,60,,,space,1,0.257,0,14,14,18,1,X,space,,,,,,,,,,,,,,
,,,,,,,,,,,,,,,,WRO106,001,,2024-05-28_07h40.11.854,Trial go no go,2020.2.10,MacIntel,60,,,space,0,0.279,0,15,15,49,1,E,none,,,,,,,,,,,,,,
,,,,,,,,,,,,,,,,WRO106,001,,2024-05-28_07h40.11.854,Trial go no go,2020.2.10,MacIntel,60,,,space,1,0.3214,0,16,16,22,1,X,space,,,,,,,,,,,,,,
,,,,,,,,,,,,,,,,WRO106,001,,2024-05-28_07h40.11.854,Trial go no go,2020.2.10,MacIntel,60,,,space,1,0.2673,0,17,17,42,1,X,space,,,,,,,,,,,,,,
,,,,,,,,,,,,,,,,WRO106,001,,2024-05-28_07h40.11.854,Trial go no go,2020.2.10,MacIntel,60,,,space,0,0.2532,0,18,18,4,1,V,none,,,,,,,,,,,,,,
,,,,,,,,,,,,,,,,WRO106,001,,2024-05-28_07h40.11.854,Trial go no go,2020.2.10,MacIntel,60,,,space,1,0.3777,0,19,19,45,1,X,space,,,,,,,,,,,,,,
,,,,,,,,,,,,,,,,WRO106,001,,2024-05-28_07h40.11.854,Trial go no go,2020.2.10,MacIntel,60,,,,1,,0,20,20,39,1,M,none,,,,,,,,,,,,,,
,,,,,,,,,,,,,,,,WRO106,001,,2024-05-28_07h40.11.854,Trial go no go,2020.2.10,MacIntel,60,,,space,1,0.3881,0,21,21,7,1,X,space,,,,,,,,,,,,,,
,,,,,,,,,,,,,,,,WRO106,001,,2024-05-28_07h40.11.854,Trial go no go,2020.2.10,MacIntel,60,,,space,1,0.341,0,22,22,31,1,X,space,,,,,,,,,,,,,,
,,,,,,,,,,,,,,,,WRO106,001,,2024-05-28_07h40.11.854,Trial go no go,2020.2.10,MacIntel,60,,,space,1,0.4997,0,23,23,20,1,X,space,,,,,,,,,,,,,,
,,,,,,,,,,,,,,,,WRO106,001,,2024-05-28_07h40.11.854,Trial go no go,2020.2.10,MacIntel,60,,,space,1,0.4824,0,24,24,6,1,X,space,,,,,,,,,,,,,,
,,,,,,,,,,,,,,,,WRO106,001,,2024-05-28_07h40.11.854,Trial go no go,2020.2.10,MacIntel,60,,,space,1,0.468,0,25,25,46,1,X,space,,,,,,,,,,,,,,
,,,,,,,,,,,,,,,,WRO106,001,,2024-05-28_07h40.11.854,Trial go no go,2020.2.10,MacIntel,60,,,,1,,0,26,26,9,1,W,none,,,,,,,,,,,,,,
,,,,,,,,,,,,,,,,WRO106,001,,2024-05-28_07h40.11.854,Trial go no go,2020.2.10,MacIntel,60,,,,1,,0,27,27,29,1,T,none,,,,,,,,,,,,,,
,,,,,,,,,,,,,,,,WRO106,001,,2024-05-28_07h40.11.854,Trial go no go,2020.2.10,MacIntel,60,,,space,1,0.4153,0,28,28,21,1,X,space,,,,,,,,,,,,,,
,,,,,,,,,,,,,,,,WRO106,001,,2024-05-28_07h40.11.854,Trial go no go,2020.2.10,MacIntel,60,,,space,1,0.3353,0,29,29,13,1,X,space,,,,,,,,,,,,,,
,,,,,,,,,,,,,,,,WRO106,001,,2024-05-28_07h40.11.854,Trial go no go,2020.2.10,MacIntel,60,,,space,1,0.3266,0,30,30,1,1,X,space,,,,,,,,,,,,,,
,,,,,,,,,,,,,,,,WRO106,001,,2024-05-28_07h40.11.854,Trial go no go,2020.2.10,MacIntel,60,,,space,1,0.3356,0,31,31,10,1,X,space,,,,,,,,,,,,,,
,,,,,,,,,,,,,,,,WRO106,001,,2024-05-28_07h40.11.854,Trial go no go,2020.2.10,MacIntel,60,,,space,1,0.3901,0,32,32,33,1,X,space,,,,,,,,,,,,,,
,,,,,,,,,,,,,,,,WRO106,001,,2024-05-28_07h40.11.854,Trial go no go,2020.2.10,MacIntel,60,,,space,1,0.3352,0,33,33,43,1,X,space,,,,,,,,,,,,,,
,,,,,,,,,,,,,,,,WRO106,001,,2024-05-28_07h40.11.854,Trial go no go,2020.2.10,MacIntel,60,,,space,1,0.3322,0,34,34,47,1,X,space,,,,,,,,,,,,,,
,,,,,,,,,,,,,,,,WRO106,001,,2024-05-28_07h40.11.854,Trial go no go,2020.2.10,MacIntel,60,,,space,1,0.491,0,35,35,40,1,X,space,,,,,,,,,,,,,,
,,,,,,,,,,,,,,,,WRO106,001,,2024-05-28_07h40.11.854,Trial go no go,2020.2.10,MacIntel,60,,,space,1,0.3996,0,36,36,12,1,X,space,,,,,,,,,,,,,,
,,,,,,,,,,,,,,,,WRO106,001,,2024-05-28_07h40.11.854,Trial go no go,2020.2.10,MacIntel,60,,,space,1,0.5499,0,37,37,17,1,X,space,,,,,,,,,,,,,,
,,,,,,,,,,,,,,,,WRO106,001,,2024-05-28_07h40.11.854,Trial go no go,2020.2.10,MacIntel,60,,,space,1,0.5413,0,38,38,36,1,X,space,,,,,,,,,,,,,,
,,,,,,,,,,,,,,,,WRO106,001,,2024-05-28_07h40.11.854,Trial go no go,2020.2.10,MacIntel,60,,,space,1,0.5819,0,39,39,35,1,X,space,,,,,,,,,,,,,,
,,,,,,,,,,,,,,,,WRO106,001,,2024-05-28_07h40.11.854,Trial go no go,2020.2.10,MacIntel,60,,,space,1,0.5854,0,40,40,30,1,X,space,,,,,,,,,,,,,,
,,,,,,,,,,,,,,,,WRO106,001,,2024-05-28_07h40.11.854,Trial go no go,2020.2.10,MacIntel,60,,,space,1,0.5192,0,41,41,26,1,X,space,,,,,,,,,,,,,,
,,,,,,,,,,,,,,,,WRO106,001,,2024-05-28_07h40.11.854,Trial go no go,2020.2.10,MacIntel,60,,,,1,,0,42,42,24,1,H,none,,,,,,,,,,,,,,
,,,,,,,,,,,,,,,,WRO106,001,,2024-05-28_07h40.11.854,Trial go no go,2020.2.10,MacIntel,60,,,space,1,0.5228,0,43,43,2,1,X,space,,,,,,,,,,,,,,
,,,,,,,,,,,,,,,,WRO106,001,,2024-05-28_07h40.11.854,Trial go no go,2020.2.10,MacIntel,60,,,space,1,0.37,0,44,44,3,1,X,space,,,,,,,,,,,,,,
,,,,,,,,,,,,,,,,WRO106,001,,2024-05-28_07h40.11.854,Trial go no go,2020.2.10,MacIntel,60,,,,1,,0,45,45,14,1,Y,none,,,,,,,,,,,,,,
,,,,,,,,,,,,,,,,WRO106,001,,2024-05-28_07h40.11.854,Trial go no go,2020.2.10,MacIntel,60,,,space,1,0.5414,0,46,46,23,1,X,space,,,,,,,,,,,,,,
,,,,,,,,,,,,,,,,WRO106,001,,2024-05-28_07h40.11.854,Trial go no go,2020.2.10,MacIntel,60,,,space,1,0.6109,0,47,47,27,1,X,space,,,,,,,,,,,,,,
,,,,,,,,,,,,,,,,WRO106,001,,2024-05-28_07h40.11.854,Trial go no go,2020.2.10,MacIntel,60,,,space,1,0.4901,0,48,48,16,1,X,space,,,,,,,,,,,,,,
,,,,,,,,,,,,,,,,WRO106,001,,2024-05-28_07h40.11.854,Trial go no go,2020.2.10,MacIntel,60,,,space,1,0.3179,0,49,49,5,1,X,space,,,,,,,,,,,,,,
,,,,,,,,,,,,,,,,WRO106,001,,2024-05-28_07h40.11.854,Trial go no go,2020.2.10,MacIntel,60,,,,,,,,,,,,,z,29.0839,,1,0,0,0,49,1,X,none,,,
,,,,,,,,,,,,,,,,WRO106,001,,2024-05-28_07h40.11.854,Trial go no go,2020.2.10,MacIntel,60,,,,,,,,,,,,,,,space,1,0,1,1,45,1,A,space,0.3822,,
,,,,,,,,,,,,,,,,WRO106,001,,2024-05-28_07h40.11.854,Trial go no go,2020.2.10,MacIntel,60,,,,,,,,,,,,,,,space,1,0,2,2,23,1,Y,space,0.5944,,
,,,,,,,,,,,,,,,,WRO106,001,,2024-05-28_07h40.11.854,Trial go no go,2020.2.10,MacIntel,60,,,,,,,,,,,,,,,space,1,0,3,3,7,1,A,space,0.5538,,
,,,,,,,,,,,,,,,,WRO106,001,,2024-05-28_07h40.11.854,Trial go no go,2020.2.10,MacIntel,60,,,,,,,,,,,,,,,,1,0,4,4,4,1,X,none,,,
,,,,,,,,,,,,,,,,WRO106,001,,2024-05-28_07h40.11.854,Trial go no go,2020.2.10,MacIntel,60,,,,,,,,,,,,,,,space,1,0,5,5,37,1,W,space,0.4878,,
,,,,,,,,,,,,,,,,WRO106,001,,2024-05-28_07h40.11.854,Trial go no go,2020.2.10,MacIntel,60,,,,,,,,,,,,,,,space,1,0,6,6,8,1,F,space,0.5628,,
,,,,,,,,,,,,,,,,WRO106,001,,2024-05-28_07h40.11.854,Trial go no go,2020.2.10,MacIntel,60,,,,,,,,,,,,,,,space,1,0,7,7,31,1,L,space,0.4993,,
,,,,,,,,,,,,,,,,WRO106,001,,2024-05-28_07h40.11.854,Trial go no go,2020.2.10,MacIntel,60,,,,,,,,,,,,,,,space,1,0,8,8,32,1,Z,space,0.4437,,
,,,,,,,,,,,,,,,,WRO106,001,,2024-05-28_07h40.11.854,Trial go no go,2020.2.10,MacIntel,60,,,,,,,,,,,,,,,space,1,0,9,9,18,1,W,space,0.5457,,
,,,,,,,,,,,,,,,,WRO106,001,,2024-05-28_07h40.11.854,Trial go no go,2020.2.10,MacIntel,60,,,,,,,,,,,,,,,space,1,0,10,10,20,1,E,space,0.5285,,
,,,,,,,,,,,,,,,,WRO106,001,,2024-05-28_07h40.11.854,Trial go no go,2020.2.10,MacIntel,60,,,,,,,,,,,,,,,space,1,0,11,11,0,1,W,space,0.5049,,
,,,,,,,,,,,,,,,,WRO106,001,,2024-05-28_07h40.11.854,Trial go no go,2020.2.10,MacIntel,60,,,,,,,,,,,,,,,space,1,0,12,12,12,1,L,space,0.5027,,
,,,,,,,,,,,,,,,,WRO106,001,,2024-05-28_07h40.11.854,Trial go no go,2020.2.10,MacIntel,60,,,,,,,,,,,,,,,space,1,0,13,13,1,1,E,space,0.5683,,
,,,,,,,,,,,,,,,,WRO106,001,,2024-05-28_07h40.11.854,Trial go no go,2020.2.10,MacIntel,60,,,,,,,,,,,,,,,space,1,0,14,14,22,1,T,space,0.5496,,
,,,,,,,,,,,,,,,,WRO106,001,,2024-05-28_07h40.11.854,Trial go no go,2020.2.10,MacIntel,60,,,,,,,,,,,,,,,,1,0,15,15,9,1,X,none,,,
,,,,,,,,,,,,,,,,WRO106,001,,2024-05-28_07h40.11.854,Trial go no go,2020.2.10,MacIntel,60,,,,,,,,,,,,,,,space,1,0,16,16,21,1,R,space,0.5536,,
,,,,,,,,,,,,,,,,WRO106,001,,2024-05-28_07h40.11.854,Trial go no go,2020.2.10,MacIntel,60,,,,,,,,,,,,,,,space,1,0,17,17,13,1,Z,space,0.6035,,
,,,,,,,,,,,,,,,,WRO106,001,,2024-05-28_07h40.11.854,Trial go no go,2020.2.10,MacIntel,60,,,,,,,,,,,,,,,space,1,0,18,18,11,1,K,space,0.6049,,
,,,,,,,,,,,,,,,,WRO106,001,,2024-05-28_07h40.11.854,Trial go no go,2020.2.10,MacIntel,60,,,,,,,,,,,,,,,,1,0,19,19,14,1,X,none,,,
,,,,,,,,,,,,,,,,WRO106,001,,2024-05-28_07h40.11.854,Trial go no go,2020.2.10,MacIntel,60,,,,,,,,,,,,,,,space,1,0,20,20,35,1,N,space,0.4632,,
,,,,,,,,,,,,,,,,WRO106,001,,2024-05-28_07h40.11.854,Trial go no go,2020.2.10,MacIntel,60,,,,,,,,,,,,,,,space,1,0,21,21,5,1,Y,space,0.3898,,
,,,,,,,,,,,,,,,,WRO106,001,,2024-05-28_07h40.11.854,Trial go no go,2020.2.10,MacIntel,60,,,,,,,,,,,,,,,space,1,0,22,22,41,1,T,space,0.4975,,
,,,,,,,,,,,,,,,,WRO106,001,,2024-05-28_07h40.11.854,Trial go no go,2020.2.10,MacIntel,60,,,,,,,,,,,,,,,space,0,0,23,23,29,1,X,none,0.5215,,
,,,,,,,,,,,,,,,,WRO106,001,,2024-05-28_07h40.11.854,Trial go no go,2020.2.10,MacIntel,60,,,,,,,,,,,,,,,space,1,0,24,24,33,1,V,space,0.4625,,
,,,,,,,,,,,,,,,,WRO106,001,,2024-05-28_07h40.11.854,Trial go no go,2020.2.10,MacIntel,60,,,,,,,,,,,,,,,space,1,0,25,25,47,1,H,space,0.3001,,
,,,,,,,,,,,,,,,,WRO106,001,,2024-05-28_07h40.11.854,Trial go no go,2020.2.10,MacIntel,60,,,,,,,,,,,,,,,space,1,0,26,26,2,1,R,space,0.3035,,
,,,,,,,,,,,,,,,,WRO106,001,,2024-05-28_07h40.11.854,Trial go no go,2020.2.10,MacIntel,60,,,,,,,,,,,,,,,,1,0,27,27,19,1,X,none,,,
,,,,,,,,,,,,,,,,WRO106,001,,2024-05-28_07h40.11.854,Trial go no go,2020.2.10,MacIntel,60,,,,,,,,,,,,,,,space,1,0,28,28,28,1,H,space,0.4292,,
,,,,,,,,,,,,,,,,WRO106,001,,2024-05-28_07h40.11.854,Trial go no go,2020.2.10,MacIntel,60,,,,,,,,,,,,,,,space,1,0,29,29,26,1,A,space,0.5129,,
,,,,,,,,,,,,,,,,WRO106,001,,2024-05-28_07h40.11.854,Trial go no go,2020.2.10,MacIntel,60,,,,,,,,,,,,,,,space,1,0,30,30,30,1,K,space,0.3695,,
,,,,,,,,,,,,,,,,WRO106,001,,2024-05-28_07h40.11.854,Trial go no go,2020.2.10,MacIntel,60,,,,,,,,,,,,,,,space,1,0,31,31,38,1,E,space,0.5297,,
,,,,,,,,,,,,,,,,WRO106,001,,2024-05-28_07h40.11.854,Trial go no go,2020.2.10,MacIntel,60,,,,,,,,,,,,,,,space,1,0,32,32,6,1,I,space,0.4945,,
,,,,,,,,,,,,,,,,WRO106,001,,2024-05-28_07h40.11.854,Trial go no go,2020.2.10,MacIntel,60,,,,,,,,,,,,,,,space,1,0,33,33,43,1,I,space,0.3753,,
,,,,,,,,,,,,,,,,WRO106,001,,2024-05-28_07h40.11.854,Trial go no go,2020.2.10,MacIntel,60,,,,,,,,,,,,,,,space,1,0,34,34,40,1,R,space,0.4065,,
,,,,,,,,,,,,,,,,WRO106,001,,2024-05-28_07h40.11.854,Trial go no go,2020.2.10,MacIntel,60,,,,,,,,,,,,,,,space,0,0,35,35,24,1,X,none,0.3046,,
,,,,,,,,,,,,,,,,WRO106,001,,2024-05-28_07h40.11.854,Trial go no go,2020.2.10,MacIntel,60,,,,,,,,,,,,,,,space,1,0,36,36,10,1,H,space,0.282,,
,,,,,,,,,,,,,,,,WRO106,001,,2024-05-28_07h40.11.854,Trial go no go,2020.2.10,MacIntel,60,,,,,,,,,,,,,,,space,1,0,37,37,15,1,V,space,0.2887,,
,,,,,,,,,,,,,,,,WRO106,001,,2024-05-28_07h40.11.854,Trial go no go,2020.2.10,MacIntel,60,,,,,,,,,,,,,,,space,0,0,38,38,39,1,X,none,0.305,,
,,,,,,,,,,,,,,,,WRO106,001,,2024-05-28_07h40.11.854,Trial go no go,2020.2.10,MacIntel,60,,,,,,,,,,,,,,,space,1,0,39,39,27,1,F,space,0.3469,,
,,,,,,,,,,,,,,,,WRO106,001,,2024-05-28_07h40.11.854,Trial go no go,2020.2.10,MacIntel,60,,,,,,,,,,,,,,,,1,0,40,40,34,1,X,none,,,
,,,,,,,,,,,,,,,,WRO106,001,,2024-05-28_07h40.11.854,Trial go no go,2020.2.10,MacIntel,60,,,,,,,,,,,,,,,space,1,0,41,41,36,1,M,space,0.3967,,
,,,,,,,,,,,,,,,,WRO106,001,,2024-05-28_07h40.11.854,Trial go no go,2020.2.10,MacIntel,60,,,,,,,,,,,,,,,space,1,0,42,42,17,1,M,space,0.3594,,
,,,,,,,,,,,,,,,,WRO106,001,,2024-05-28_07h40.11.854,Trial go no go,2020.2.10,MacIntel,60,,,,,,,,,,,,,,,space,1,0,43,43,16,1,N,space,0.4927,,
,,,,,,,,,,,,,,,,WRO106,001,,2024-05-28_07h40.11.854,Trial go no go,2020.2.10,MacIntel,60,,,,,,,,,,,,,,,space,1,0,44,44,48,1,K,space,0.5545,,
,,,,,,,,,,,,,,,,WRO106,001,,2024-05-28_07h40.11.854,Trial go no go,2020.2.10,MacIntel,60,,,,,,,,,,,,,,,space,1,0,45,45,3,1,T,space,0.6701,,
,,,,,,,,,,,,,,,,WRO106,001,,2024-05-28_07h40.11.854,Trial go no go,2020.2.10,MacIntel,60,,,,,,,,,,,,,,,space,1,0,46,46,46,1,F,space,0.6377,,
,,,,,,,,,,,,,,,,WRO106,001,,2024-05-28_07h40.11.854,Trial go no go,2020.2.10,MacIntel,60,,,,,,,,,,,,,,,space,1,0,47,47,42,1,Y,space,0.6221,,
,,,,,,,,,,,,,,,,WRO106,001,,2024-05-28_07h40.11.854,Trial go no go,2020.2.10,MacIntel,60,,,,,,,,,,,,,,,space,1,0,48,48,25,1,I,space,0.5954,,
,,,,,,,,,,,,,,,,WRO106,001,,2024-05-28_07h40.11.854,Trial go no go,2020.2.10,MacIntel,60,,,,,,,,,,,,,,,,1,0,49,49,44,1,X,none,,,
,,,,,,,,,,,,,,,,WRO106,001,,2024-05-28_07h40.11.854,Trial go no go,2020.2.10,MacIntel,60,,,,,,,,,,,,,,,,,,,,,,,,,space,9.7503
