resp_Welcome.keys,resp_Welcome.rt,resp_Instr_Intro.keys,resp_Instr_Intro.rt,resp_Instr_Prac1.keys,resp_Instr_Prac1.rt,resp_trial_Prac1.keys,resp_trial_Prac1.corr,resp_trial_Prac1.rt,prac_trials.thisRepN,prac_trials.thisTrialN,prac_trials.thisN,prac_trials.thisIndex,prac_trials.ran,stimulus_prac1,corrAns_prac1,participant,session,indywidualny kod,date,expName,psychopyVersion,OS,frameRate,resp_Instr_Test1.keys,resp_Instr_Test1.rt,resp_trial_Test1.keys,resp_trial_Test1.corr,resp_trial_Test1.rt,test1trial.thisRepN,test1trial.thisTrialN,test1trial.thisN,test1trial.thisIndex,test1trial.ran,stimulus_test1,corrAns_test1,resp_Instr_Test2.keys,resp_Instr_Test2.rt,key_resp_Test2.keys,key_resp_Test2.corr,key_resp_Test2.rt,test2trial.thisRepN,test2trial.thisTrialN,test2trial.thisN,test2trial.thisIndex,test2trial.ran,stimulus_test2,corrAns_test2,resp_theEnd.keys,resp_theEnd.rt
space,16.5469,space,16.5767,space,2.1026,space,1,1.1764,0,0,0,10,1,X,space,WRO108,001,,2024-06-13_12h38.50.812,Trial go no go,2020.2.10,MacIntel,60,,,,,,,,,,,,,,,,,,,,,,,,,,
,,,,,,space,1,0.5037,0,1,1,0,1,X,space,WRO108,001,,2024-06-13_12h38.50.812,Trial go no go,2020.2.10,MacIntel,60,,,,,,,,,,,,,,,,,,,,,,,,,,
,,,,,,,1,,0,2,2,4,1,W,none,WRO108,001,,2024-06-13_12h38.50.812,Trial go no go,2020.2.10,MacIntel,60,,,,,,,,,,,,,,,,,,,,,,,,,,
,,,,,,,1,,0,3,3,9,1,V,none,WRO108,001,,2024-06-13_12h38.50.812,Trial go no go,2020.2.10,MacIntel,60,,,,,,,,,,,,,,,,,,,,,,,,,,
,,,,,,space,1,0.5561,0,4,4,2,1,X,space,WRO108,001,,2024-06-13_12h38.50.812,Trial go no go,2020.2.10,MacIntel,60,,,,,,,,,,,,,,,,,,,,,,,,,,
,,,,,,space,1,0.5756,0,5,5,3,1,X,space,WRO108,001,,2024-06-13_12h38.50.812,Trial go no go,2020.2.10,MacIntel,60,,,,,,,,,,,,,,,,,,,,,,,,,,
,,,,,,space,1,0.5062,0,6,6,6,1,X,space,WRO108,001,,2024-06-13_12h38.50.812,Trial go no go,2020.2.10,MacIntel,60,,,,,,,,,,,,,,,,,,,,,,,,,,
,,,,,,space,1,0.4585,0,7,7,11,1,X,space,WRO108,001,,2024-06-13_12h38.50.812,Trial go no go,2020.2.10,MacIntel,60,,,,,,,,,,,,,,,,,,,,,,,,,,
,,,,,,space,1,0.4467,0,8,8,1,1,X,space,WRO108,001,,2024-06-13_12h38.50.812,Trial go no go,2020.2.10,MacIntel,60,,,,,,,,,,,,,,,,,,,,,,,,,,
,,,,,,space,1,0.4818,0,9,9,13,1,X,space,WRO108,001,,2024-06-13_12h38.50.812,Trial go no go,2020.2.10,MacIntel,60,,,,,,,,,,,,,,,,,,,,,,,,,,
,,,,,,space,1,0.4126,0,10,10,7,1,X,space,WRO108,001,,2024-06-13_12h38.50.812,Trial go no go,2020.2.10,MacIntel,60,,,,,,,,,,,,,,,,,,,,,,,,,,
,,,,,,space,1,0.4198,0,11,11,5,1,X,space,WRO108,001,,2024-06-13_12h38.50.812,Trial go no go,2020.2.10,MacIntel,60,,,,,,,,,,,,,,,,,,,,,,,,,,
,,,,,,,1,,0,12,12,14,1,K,none,WRO108,001,,2024-06-13_12h38.50.812,Trial go no go,2020.2.10,MacIntel,60,,,,,,,,,,,,,,,,,,,,,,,,,,
,,,,,,space,1,0.5238,0,13,13,8,1,X,space,WRO108,001,,2024-06-13_12h38.50.812,Trial go no go,2020.2.10,MacIntel,60,,,,,,,,,,,,,,,,,,,,,,,,,,
,,,,,,space,1,0.4306,0,14,14,12,1,X,space,WRO108,001,,2024-06-13_12h38.50.812,Trial go no go,2020.2.10,MacIntel,60,,,,,,,,,,,,,,,,,,,,,,,,,,
,,,,,,,,,,,,,,,,WRO108,001,,2024-06-13_12h38.50.812,Trial go no go,2020.2.10,MacIntel,60,space,12.8034,space,1,0.5115,0,0,0,36,1,X,space,,,,,,,,,,,,,,
,,,,,,,,,,,,,,,,WRO108,001,,2024-06-13_12h38.50.812,Trial go no go,2020.2.10,MacIntel,60,,,space,1,0.4659,0,1,1,18,1,X,space,,,,,,,,,,,,,,
,,,,,,,,,,,,,,,,WRO108,001,,2024-06-13_12h38.50.812,Trial go no go,2020.2.10,MacIntel,60,,,space,1,0.2991,0,2,2,10,1,X,space,,,,,,,,,,,,,,
,,,,,,,,,,,,,,,,WRO108,001,,2024-06-13_12h38.50.812,Trial go no go,2020.2.10,MacIntel,60,,,space,1,0.3012,0,3,3,2,1,X,space,,,,,,,,,,,,,,
,,,,,,,,,,,,,,,,WRO108,001,,2024-06-13_12h38.50.812,Trial go no go,2020.2.10,MacIntel,60,,,space,1,0.2974,0,4,4,37,1,X,space,,,,,,,,,,,,,,
,,,,,,,,,,,,,,,,WRO108,001,,2024-06-13_12h38.50.812,Trial go no go,2020.2.10,MacIntel,60,,,space,1,0.3164,0,5,5,15,1,X,space,,,,,,,,,,,,,,
,,,,,,,,,,,,,,,,WRO108,001,,2024-06-13_12h38.50.812,Trial go no go,2020.2.10,MacIntel,60,,,space,1,0.3076,0,6,6,5,1,X,space,,,,,,,,,,,,,,
,,,,,,,,,,,,,,,,WRO108,001,,2024-06-13_12h38.50.812,Trial go no go,2020.2.10,MacIntel,60,,,space,0,0.2603,0,7,7,9,1,W,none,,,,,,,,,,,,,,
,,,,,,,,,,,,,,,,WRO108,001,,2024-06-13_12h38.50.812,Trial go no go,2020.2.10,MacIntel,60,,,space,0,0.2877,0,8,8,34,1,N,none,,,,,,,,,,,,,,
,,,,,,,,,,,,,,,,WRO108,001,,2024-06-13_12h38.50.812,Trial go no go,2020.2.10,MacIntel,60,,,space,1,0.4655,0,9,9,22,1,X,space,,,,,,,,,,,,,,
,,,,,,,,,,,,,,,,WRO108,001,,2024-06-13_12h38.50.812,Trial go no go,2020.2.10,MacIntel,60,,,space,1,0.5218,0,10,10,25,1,X,space,,,,,,,,,,,,,,
,,,,,,,,,,,,,,,,WRO108,001,,2024-06-13_12h38.50.812,Trial go no go,2020.2.10,MacIntel,60,,,space,1,0.4325,0,11,11,0,1,X,space,,,,,,,,,,,,,,
,,,,,,,,,,,,,,,,WRO108,001,,2024-06-13_12h38.50.812,Trial go no go,2020.2.10,MacIntel,60,,,space,1,0.3809,0,12,12,48,1,X,space,,,,,,,,,,,,,,
,,,,,,,,,,,,,,,,WRO108,001,,2024-06-13_12h38.50.812,Trial go no go,2020.2.10,MacIntel,60,,,space,1,0.3691,0,13,13,40,1,X,space,,,,,,,,,,,,,,
,,,,,,,,,,,,,,,,WRO108,001,,2024-06-13_12h38.50.812,Trial go no go,2020.2.10,MacIntel,60,,,,1,,0,14,14,4,1,V,none,,,,,,,,,,,,,,
,,,,,,,,,,,,,,,,WRO108,001,,2024-06-13_12h38.50.812,Trial go no go,2020.2.10,MacIntel,60,,,space,0,0.3069,0,15,15,14,1,Y,none,,,,,,,,,,,,,,
,,,,,,,,,,,,,,,,WRO108,001,,2024-06-13_12h38.50.812,Trial go no go,2020.2.10,MacIntel,60,,,space,1,0.3816,0,16,16,30,1,X,space,,,,,,,,,,,,,,
,,,,,,,,,,,,,,,,WRO108,001,,2024-06-13_12h38.50.812,Trial go no go,2020.2.10,MacIntel,60,,,space,1,0.3999,0,17,17,28,1,X,space,,,,,,,,,,,,,,
,,,,,,,,,,,,,,,,WRO108,001,,2024-06-13_12h38.50.812,Trial go no go,2020.2.10,MacIntel,60,,,,1,,0,18,18,39,1,M,none,,,,,,,,,,,,,,
,,,,,,,,,,,,,,,,WRO108,001,,2024-06-13_12h38.50.812,Trial go no go,2020.2.10,MacIntel,60,,,space,1,0.434,0,19,19,32,1,X,space,,,,,,,,,,,,,,
,,,,,,,,,,,,,,,,WRO108,001,,2024-06-13_12h38.50.812,Trial go no go,2020.2.10,MacIntel,60,,,space,1,0.4052,0,20,20,26,1,X,space,,,,,,,,,,,,,,
,,,,,,,,,,,,,,,,WRO108,001,,2024-06-13_12h38.50.812,Trial go no go,2020.2.10,MacIntel,60,,,space,1,0.598,0,21,21,43,1,X,space,,,,,,,,,,,,,,
,,,,,,,,,,,,,,,,WRO108,001,,2024-06-13_12h38.50.812,Trial go no go,2020.2.10,MacIntel,60,,,space,1,0.4746,0,22,22,17,1,X,space,,,,,,,,,,,,,,
,,,,,,,,,,,,,,,,WRO108,001,,2024-06-13_12h38.50.812,Trial go no go,2020.2.10,MacIntel,60,,,space,1,0.3858,0,23,23,1,1,X,space,,,,,,,,,,,,,,
,,,,,,,,,,,,,,,,WRO108,001,,2024-06-13_12h38.50.812,Trial go no go,2020.2.10,MacIntel,60,,,space,1,0.3984,0,24,24,42,1,X,space,,,,,,,,,,,,,,
,,,,,,,,,,,,,,,,WRO108,001,,2024-06-13_12h38.50.812,Trial go no go,2020.2.10,MacIntel,60,,,space,1,0.3225,0,25,25,33,1,X,space,,,,,,,,,,,,,,
,,,,,,,,,,,,,,,,WRO108,001,,2024-06-13_12h38.50.812,Trial go no go,2020.2.10,MacIntel,60,,,space,1,0.3149,0,26,26,31,1,X,space,,,,,,,,,,,,,,
,,,,,,,,,,,,,,,,WRO108,001,,2024-06-13_12h38.50.812,Trial go no go,2020.2.10,MacIntel,60,,,space,1,0.3474,0,27,27,21,1,X,space,,,,,,,,,,,,,,
,,,,,,,,,,,,,,,,WRO108,001,,2024-06-13_12h38.50.812,Trial go no go,2020.2.10,MacIntel,60,,,space,1,0.3638,0,28,28,8,1,X,space,,,,,,,,,,,,,,
,,,,,,,,,,,,,,,,WRO108,001,,2024-06-13_12h38.50.812,Trial go no go,2020.2.10,MacIntel,60,,,space,1,0.3439,0,29,29,45,1,X,space,,,,,,,,,,,,,,
,,,,,,,,,,,,,,,,WRO108,001,,2024-06-13_12h38.50.812,Trial go no go,2020.2.10,MacIntel,60,,,space,0,0.3629,0,30,30,24,1,H,none,,,,,,,,,,,,,,
,,,,,,,,,,,,,,,,WRO108,001,,2024-06-13_12h38.50.812,Trial go no go,2020.2.10,MacIntel,60,,,space,1,0.4069,0,31,31,35,1,X,space,,,,,,,,,,,,,,
,,,,,,,,,,,,,,,,WRO108,001,,2024-06-13_12h38.50.812,Trial go no go,2020.2.10,MacIntel,60,,,space,1,0.4547,0,32,32,20,1,X,space,,,,,,,,,,,,,,
,,,,,,,,,,,,,,,,WRO108,001,,2024-06-13_12h38.50.812,Trial go no go,2020.2.10,MacIntel,60,,,,1,,0,33,33,29,1,T,none,,,,,,,,,,,,,,
,,,,,,,,,,,,,,,,WRO108,001,,2024-06-13_12h38.50.812,Trial go no go,2020.2.10,MacIntel,60,,,space,1,0.4791,0,34,34,27,1,X,space,,,,,,,,,,,,,,
,,,,,,,,,,,,,,,,WRO108,001,,2024-06-13_12h38.50.812,Trial go no go,2020.2.10,MacIntel,60,,,space,1,0.3804,0,35,35,3,1,X,space,,,,,,,,,,,,,,
,,,,,,,,,,,,,,,,WRO108,001,,2024-06-13_12h38.50.812,Trial go no go,2020.2.10,MacIntel,60,,,space,1,0.3888,0,36,36,11,1,X,space,,,,,,,,,,,,,,
,,,,,,,,,,,,,,,,WRO108,001,,2024-06-13_12h38.50.812,Trial go no go,2020.2.10,MacIntel,60,,,space,1,0.3736,0,37,37,47,1,X,space,,,,,,,,,,,,,,
,,,,,,,,,,,,,,,,WRO108,001,,2024-06-13_12h38.50.812,Trial go no go,2020.2.10,MacIntel,60,,,space,1,0.354,0,38,38,23,1,X,space,,,,,,,,,,,,,,
,,,,,,,,,,,,,,,,WRO108,001,,2024-06-13_12h38.50.812,Trial go no go,2020.2.10,MacIntel,60,,,space,1,0.3483,0,39,39,41,1,X,space,,,,,,,,,,,,,,
,,,,,,,,,,,,,,,,WRO108,001,,2024-06-13_12h38.50.812,Trial go no go,2020.2.10,MacIntel,60,,,,1,,0,40,40,19,1,K,none,,,,,,,,,,,,,,
,,,,,,,,,,,,,,,,WRO108,001,,2024-06-13_12h38.50.812,Trial go no go,2020.2.10,MacIntel,60,,,space,1,0.3607,0,41,41,13,1,X,space,,,,,,,,,,,,,,
,,,,,,,,,,,,,,,,WRO108,001,,2024-06-13_12h38.50.812,Trial go no go,2020.2.10,MacIntel,60,,,space,1,0.3662,0,42,42,6,1,X,space,,,,,,,,,,,,,,
,,,,,,,,,,,,,,,,WRO108,001,,2024-06-13_12h38.50.812,Trial go no go,2020.2.10,MacIntel,60,,,,1,,0,43,43,49,1,E,none,,,,,,,,,,,,,,
,,,,,,,,,,,,,,,,WRO108,001,,2024-06-13_12h38.50.812,Trial go no go,2020.2.10,MacIntel,60,,,space,1,0.3362,0,44,44,38,1,X,space,,,,,,,,,,,,,,
,,,,,,,,,,,,,,,,WRO108,001,,2024-06-13_12h38.50.812,Trial go no go,2020.2.10,MacIntel,60,,,space,1,0.3641,0,45,45,16,1,X,space,,,,,,,,,,,,,,
,,,,,,,,,,,,,,,,WRO108,001,,2024-06-13_12h38.50.812,Trial go no go,2020.2.10,MacIntel,60,,,space,1,0.3543,0,46,46,12,1,X,space,,,,,,,,,,,,,,
,,,,,,,,,,,,,,,,WRO108,001,,2024-06-13_12h38.50.812,Trial go no go,2020.2.10,MacIntel,60,,,space,0,0.6544,0,47,47,44,1,F,none,,,,,,,,,,,,,,
,,,,,,,,,,,,,,,,WRO108,001,,2024-06-13_12h38.50.812,Trial go no go,2020.2.10,MacIntel,60,,,space,1,0.7297,0,48,48,46,1,X,space,,,,,,,,,,,,,,
,,,,,,,,,,,,,,,,WRO108,001,,2024-06-13_12h38.50.812,Trial go no go,2020.2.10,MacIntel,60,,,space,1,0.4582,0,49,49,7,1,X,space,,,,,,,,,,,,,,
,,,,,,,,,,,,,,,,WRO108,001,,2024-06-13_12h38.50.812,Trial go no go,2020.2.10,MacIntel,60,,,,,,,,,,,,,z,18.2098,space,1,0.7704,0,0,0,22,1,T,space,,
,,,,,,,,,,,,,,,,WRO108,001,,2024-06-13_12h38.50.812,Trial go no go,2020.2.10,MacIntel,60,,,,,,,,,,,,,,,space,1,0.7918,0,1,1,26,1,A,space,,
,,,,,,,,,,,,,,,,WRO108,001,,2024-06-13_12h38.50.812,Trial go no go,2020.2.10,MacIntel,60,,,,,,,,,,,,,,,space,1,0.4609,0,2,2,8,1,F,space,,
,,,,,,,,,,,,,,,,WRO108,001,,2024-06-13_12h38.50.812,Trial go no go,2020.2.10,MacIntel,60,,,,,,,,,,,,,,,space,1,0.3169,0,3,3,17,1,M,space,,
,,,,,,,,,,,,,,,,WRO108,001,,2024-06-13_12h38.50.812,Trial go no go,2020.2.10,MacIntel,60,,,,,,,,,,,,,,,,1,,0,4,4,44,1,X,none,,
,,,,,,,,,,,,,,,,WRO108,001,,2024-06-13_12h38.50.812,Trial go no go,2020.2.10,MacIntel,60,,,,,,,,,,,,,,,space,1,0.3419,0,5,5,43,1,I,space,,
,,,,,,,,,,,,,,,,WRO108,001,,2024-06-13_12h38.50.812,Trial go no go,2020.2.10,MacIntel,60,,,,,,,,,,,,,,,space,1,0.3748,0,6,6,7,1,A,space,,
,,,,,,,,,,,,,,,,WRO108,001,,2024-06-13_12h38.50.812,Trial go no go,2020.2.10,MacIntel,60,,,,,,,,,,,,,,,space,1,0.324,0,7,7,23,1,Y,space,,
,,,,,,,,,,,,,,,,WRO108,001,,2024-06-13_12h38.50.812,Trial go no go,2020.2.10,MacIntel,60,,,,,,,,,,,,,,,space,1,0.3058,0,8,8,46,1,F,space,,
,,,,,,,,,,,,,,,,WRO108,001,,2024-06-13_12h38.50.812,Trial go no go,2020.2.10,MacIntel,60,,,,,,,,,,,,,,,,1,,0,9,9,4,1,X,none,,
,,,,,,,,,,,,,,,,WRO108,001,,2024-06-13_12h38.50.812,Trial go no go,2020.2.10,MacIntel,60,,,,,,,,,,,,,,,space,0,0.3082,0,10,10,49,1,X,none,,
,,,,,,,,,,,,,,,,WRO108,001,,2024-06-13_12h38.50.812,Trial go no go,2020.2.10,MacIntel,60,,,,,,,,,,,,,,,space,1,0.3517,0,11,11,13,1,Z,space,,
,,,,,,,,,,,,,,,,WRO108,001,,2024-06-13_12h38.50.812,Trial go no go,2020.2.10,MacIntel,60,,,,,,,,,,,,,,,space,1,0.3912,0,12,12,28,1,H,space,,
,,,,,,,,,,,,,,,,WRO108,001,,2024-06-13_12h38.50.812,Trial go no go,2020.2.10,MacIntel,60,,,,,,,,,,,,,,,space,1,0.5643,0,13,13,30,1,K,space,,
,,,,,,,,,,,,,,,,WRO108,001,,2024-06-13_12h38.50.812,Trial go no go,2020.2.10,MacIntel,60,,,,,,,,,,,,,,,space,1,0.3992,0,14,14,16,1,N,space,,
,,,,,,,,,,,,,,,,WRO108,001,,2024-06-13_12h38.50.812,Trial go no go,2020.2.10,MacIntel,60,,,,,,,,,,,,,,,space,1,0.3968,0,15,15,38,1,E,space,,
,,,,,,,,,,,,,,,,WRO108,001,,2024-06-13_12h38.50.812,Trial go no go,2020.2.10,MacIntel,60,,,,,,,,,,,,,,,space,1,0.5976,0,16,16,31,1,L,space,,
,,,,,,,,,,,,,,,,WRO108,001,,2024-06-13_12h38.50.812,Trial go no go,2020.2.10,MacIntel,60,,,,,,,,,,,,,,,space,1,0.3561,0,17,17,45,1,A,space,,
,,,,,,,,,,,,,,,,WRO108,001,,2024-06-13_12h38.50.812,Trial go no go,2020.2.10,MacIntel,60,,,,,,,,,,,,,,,space,0,0.3298,0,18,18,19,1,X,none,,
,,,,,,,,,,,,,,,,WRO108,001,,2024-06-13_12h38.50.812,Trial go no go,2020.2.10,MacIntel,60,,,,,,,,,,,,,,,space,1,0.3592,0,19,19,33,1,V,space,,
,,,,,,,,,,,,,,,,WRO108,001,,2024-06-13_12h38.50.812,Trial go no go,2020.2.10,MacIntel,60,,,,,,,,,,,,,,,space,1,0.391,0,20,20,12,1,L,space,,
,,,,,,,,,,,,,,,,WRO108,001,,2024-06-13_12h38.50.812,Trial go no go,2020.2.10,MacIntel,60,,,,,,,,,,,,,,,space,1,0.357,0,21,21,32,1,Z,space,,
,,,,,,,,,,,,,,,,WRO108,001,,2024-06-13_12h38.50.812,Trial go no go,2020.2.10,MacIntel,60,,,,,,,,,,,,,,,,1,,0,22,22,24,1,X,none,,
,,,,,,,,,,,,,,,,WRO108,001,,2024-06-13_12h38.50.812,Trial go no go,2020.2.10,MacIntel,60,,,,,,,,,,,,,,,space,1,0.2961,0,23,23,0,1,W,space,,
,,,,,,,,,,,,,,,,WRO108,001,,2024-06-13_12h38.50.812,Trial go no go,2020.2.10,MacIntel,60,,,,,,,,,,,,,,,space,1,0.4757,0,24,24,42,1,Y,space,,
,,,,,,,,,,,,,,,,WRO108,001,,2024-06-13_12h38.50.812,Trial go no go,2020.2.10,MacIntel,60,,,,,,,,,,,,,,,space,1,0.4907,0,25,25,48,1,K,space,,
,,,,,,,,,,,,,,,,WRO108,001,,2024-06-13_12h38.50.812,Trial go no go,2020.2.10,MacIntel,60,,,,,,,,,,,,,,,space,1,0.3376,0,26,26,41,1,T,space,,
,,,,,,,,,,,,,,,,WRO108,001,,2024-06-13_12h38.50.812,Trial go no go,2020.2.10,MacIntel,60,,,,,,,,,,,,,,,space,1,0.3581,0,27,27,15,1,V,space,,
,,,,,,,,,,,,,,,,WRO108,001,,2024-06-13_12h38.50.812,Trial go no go,2020.2.10,MacIntel,60,,,,,,,,,,,,,,,space,1,0.3556,0,28,28,21,1,R,space,,
,,,,,,,,,,,,,,,,WRO108,001,,2024-06-13_12h38.50.812,Trial go no go,2020.2.10,MacIntel,60,,,,,,,,,,,,,,,space,1,0.3632,0,29,29,47,1,H,space,,
,,,,,,,,,,,,,,,,WRO108,001,,2024-06-13_12h38.50.812,Trial go no go,2020.2.10,MacIntel,60,,,,,,,,,,,,,,,space,0,0.3482,0,30,30,9,1,X,none,,
,,,,,,,,,,,,,,,,WRO108,001,,2024-06-13_12h38.50.812,Trial go no go,2020.2.10,MacIntel,60,,,,,,,,,,,,,,,space,1,0.4102,0,31,31,6,1,I,space,,
,,,,,,,,,,,,,,,,WRO108,001,,2024-06-13_12h38.50.812,Trial go no go,2020.2.10,MacIntel,60,,,,,,,,,,,,,,,,1,,0,32,32,29,1,X,none,,
,,,,,,,,,,,,,,,,WRO108,001,,2024-06-13_12h38.50.812,Trial go no go,2020.2.10,MacIntel,60,,,,,,,,,,,,,,,space,1,0.3459,0,33,33,20,1,E,space,,
,,,,,,,,,,,,,,,,WRO108,001,,2024-06-13_12h38.50.812,Trial go no go,2020.2.10,MacIntel,60,,,,,,,,,,,,,,,space,1,0.3503,0,34,34,11,1,K,space,,
,,,,,,,,,,,,,,,,WRO108,001,,2024-06-13_12h38.50.812,Trial go no go,2020.2.10,MacIntel,60,,,,,,,,,,,,,,,,1,,0,35,35,34,1,X,none,,
,,,,,,,,,,,,,,,,WRO108,001,,2024-06-13_12h38.50.812,Trial go no go,2020.2.10,MacIntel,60,,,,,,,,,,,,,,,space,1,0.3658,0,36,36,1,1,E,space,,
,,,,,,,,,,,,,,,,WRO108,001,,2024-06-13_12h38.50.812,Trial go no go,2020.2.10,MacIntel,60,,,,,,,,,,,,,,,space,1,0.3612,0,37,37,10,1,H,space,,
,,,,,,,,,,,,,,,,WRO108,001,,2024-06-13_12h38.50.812,Trial go no go,2020.2.10,MacIntel,60,,,,,,,,,,,,,,,space,1,0.4136,0,38,38,37,1,W,space,,
,,,,,,,,,,,,,,,,WRO108,001,,2024-06-13_12h38.50.812,Trial go no go,2020.2.10,MacIntel,60,,,,,,,,,,,,,,,space,1,0.3933,0,39,39,2,1,R,space,,
,,,,,,,,,,,,,,,,WRO108,001,,2024-06-13_12h38.50.812,Trial go no go,2020.2.10,MacIntel,60,,,,,,,,,,,,,,,space,1,0.3963,0,40,40,27,1,F,space,,
,,,,,,,,,,,,,,,,WRO108,001,,2024-06-13_12h38.50.812,Trial go no go,2020.2.10,MacIntel,60,,,,,,,,,,,,,,,,1,,0,41,41,39,1,X,none,,
,,,,,,,,,,,,,,,,WRO108,001,,2024-06-13_12h38.50.812,Trial go no go,2020.2.10,MacIntel,60,,,,,,,,,,,,,,,space,1,0.3323,0,42,42,40,1,R,space,,
,,,,,,,,,,,,,,,,WRO108,001,,2024-06-13_12h38.50.812,Trial go no go,2020.2.10,MacIntel,60,,,,,,,,,,,,,,,space,1,0.3471,0,43,43,25,1,I,space,,
,,,,,,,,,,,,,,,,WRO108,001,,2024-06-13_12h38.50.812,Trial go no go,2020.2.10,MacIntel,60,,,,,,,,,,,,,,,space,1,0.4398,0,44,44,5,1,Y,space,,
,,,,,,,,,,,,,,,,WRO108,001,,2024-06-13_12h38.50.812,Trial go no go,2020.2.10,MacIntel,60,,,,,,,,,,,,,,,space,1,0.3154,0,45,45,18,1,W,space,,
,,,,,,,,,,,,,,,,WRO108,001,,2024-06-13_12h38.50.812,Trial go no go,2020.2.10,MacIntel,60,,,,,,,,,,,,,,,space,1,0.3309,0,46,46,36,1,M,space,,
,,,,,,,,,,,,,,,,WRO108,001,,2024-06-13_12h38.50.812,Trial go no go,2020.2.10,MacIntel,60,,,,,,,,,,,,,,,space,1,0.3448,0,47,47,3,1,T,space,,
,,,,,,,,,,,,,,,,WRO108,001,,2024-06-13_12h38.50.812,Trial go no go,2020.2.10,MacIntel,60,,,,,,,,,,,,,,,,1,,0,48,48,14,1,X,none,,
,,,,,,,,,,,,,,,,WRO108,001,,2024-06-13_12h38.50.812,Trial go no go,2020.2.10,MacIntel,60,,,,,,,,,,,,,,,space,1,0.3289,0,49,49,35,1,N,space,,
,,,,,,,,,,,,,,,,WRO108,001,,2024-06-13_12h38.50.812,Trial go no go,2020.2.10,MacIntel,60,,,,,,,,,,,,,,,,,,,,,,,,,space,16.3273
