resp_Welcome.keys,resp_Welcome.rt,resp_Instr_Intro.keys,resp_Instr_Intro.rt,resp_Instr_Prac1.keys,resp_Instr_Prac1.rt,resp_trial_Prac1.keys,resp_trial_Prac1.corr,prac_trials.thisRepN,prac_trials.thisTrialN,prac_trials.thisN,prac_trials.thisIndex,prac_trials.ran,stimulus_prac1,corrAns_prac1,participant,session,indywidualny kod,date,expName,psychopyVersion,OS,frameRate,fbclid,resp_trial_Prac1.rt,resp_Instr_Test1.keys,resp_Instr_Test1.rt,resp_trial_Test1.keys,resp_trial_Test1.corr,resp_trial_Test1.rt,test1trial.thisRepN,test1trial.thisTrialN,test1trial.thisN,test1trial.thisIndex,test1trial.ran,stimulus_test1,corrAns_test1,resp_Instr_Test2.keys,resp_Instr_Test2.rt,key_resp_Test2.keys,key_resp_Test2.corr,test2trial.thisRepN,test2trial.thisTrialN,test2trial.thisN,test2trial.thisIndex,test2trial.ran,stimulus_test2,corrAns_test2,key_resp_Test2.rt,resp_theEnd.keys,resp_theEnd.rt
space,17.2161,space,32.2294,space,11.5924,,0,0,0,0,0,1,X,space,wro65,001,,2023-09-13_14h34.47.586,Trial go no go,2020.2.10,MacIntel,60,IwAR0HVFKXOAArlYFSOOkLlfb8-noU35LSlTwWeLW7WzQM5sbCVbZ6gCA177U,,,,,,,,,,,,,,,,,,,,,,,,,,,
,,,,,,space,1,0,1,1,11,1,X,space,wro65,001,,2023-09-13_14h34.47.586,Trial go no go,2020.2.10,MacIntel,60,IwAR0HVFKXOAArlYFSOOkLlfb8-noU35LSlTwWeLW7WzQM5sbCVbZ6gCA177U,0.4893,,,,,,,,,,,,,,,,,,,,,,,,,,
,,,,,,space,1,0,2,2,7,1,X,space,wro65,001,,2023-09-13_14h34.47.586,Trial go no go,2020.2.10,MacIntel,60,IwAR0HVFKXOAArlYFSOOkLlfb8-noU35LSlTwWeLW7WzQM5sbCVbZ6gCA177U,0.3683,,,,,,,,,,,,,,,,,,,,,,,,,,
,,,,,,space,1,0,3,3,13,1,X,space,wro65,001,,2023-09-13_14h34.47.586,Trial go no go,2020.2.10,MacIntel,60,IwAR0HVFKXOAArlYFSOOkLlfb8-noU35LSlTwWeLW7WzQM5sbCVbZ6gCA177U,0.3513,,,,,,,,,,,,,,,,,,,,,,,,,,
,,,,,,space,1,0,4,4,1,1,X,space,wro65,001,,2023-09-13_14h34.47.586,Trial go no go,2020.2.10,MacIntel,60,IwAR0HVFKXOAArlYFSOOkLlfb8-noU35LSlTwWeLW7WzQM5sbCVbZ6gCA177U,0.4833,,,,,,,,,,,,,,,,,,,,,,,,,,
,,,,,,space,1,0,5,5,2,1,X,space,wro65,001,,2023-09-13_14h34.47.586,Trial go no go,2020.2.10,MacIntel,60,IwAR0HVFKXOAArlYFSOOkLlfb8-noU35LSlTwWeLW7WzQM5sbCVbZ6gCA177U,0.4654,,,,,,,,,,,,,,,,,,,,,,,,,,
,,,,,,space,1,0,6,6,10,1,X,space,wro65,001,,2023-09-13_14h34.47.586,Trial go no go,2020.2.10,MacIntel,60,IwAR0HVFKXOAArlYFSOOkLlfb8-noU35LSlTwWeLW7WzQM5sbCVbZ6gCA177U,0.384,,,,,,,,,,,,,,,,,,,,,,,,,,
,,,,,,space,1,0,7,7,3,1,X,space,wro65,001,,2023-09-13_14h34.47.586,Trial go no go,2020.2.10,MacIntel,60,IwAR0HVFKXOAArlYFSOOkLlfb8-noU35LSlTwWeLW7WzQM5sbCVbZ6gCA177U,0.3491,,,,,,,,,,,,,,,,,,,,,,,,,,
,,,,,,space,1,0,8,8,6,1,X,space,wro65,001,,2023-09-13_14h34.47.586,Trial go no go,2020.2.10,MacIntel,60,IwAR0HVFKXOAArlYFSOOkLlfb8-noU35LSlTwWeLW7WzQM5sbCVbZ6gCA177U,0.35,,,,,,,,,,,,,,,,,,,,,,,,,,
,,,,,,,1,0,9,9,4,1,W,none,wro65,001,,2023-09-13_14h34.47.586,Trial go no go,2020.2.10,MacIntel,60,IwAR0HVFKXOAArlYFSOOkLlfb8-noU35LSlTwWeLW7WzQM5sbCVbZ6gCA177U,,,,,,,,,,,,,,,,,,,,,,,,,,,
,,,,,,,1,0,10,10,9,1,V,none,wro65,001,,2023-09-13_14h34.47.586,Trial go no go,2020.2.10,MacIntel,60,IwAR0HVFKXOAArlYFSOOkLlfb8-noU35LSlTwWeLW7WzQM5sbCVbZ6gCA177U,,,,,,,,,,,,,,,,,,,,,,,,,,,
,,,,,,space,1,0,11,11,8,1,X,space,wro65,001,,2023-09-13_14h34.47.586,Trial go no go,2020.2.10,MacIntel,60,IwAR0HVFKXOAArlYFSOOkLlfb8-noU35LSlTwWeLW7WzQM5sbCVbZ6gCA177U,0.4116,,,,,,,,,,,,,,,,,,,,,,,,,,
,,,,,,,1,0,12,12,14,1,K,none,wro65,001,,2023-09-13_14h34.47.586,Trial go no go,2020.2.10,MacIntel,60,IwAR0HVFKXOAArlYFSOOkLlfb8-noU35LSlTwWeLW7WzQM5sbCVbZ6gCA177U,,,,,,,,,,,,,,,,,,,,,,,,,,,
,,,,,,space,1,0,13,13,5,1,X,space,wro65,001,,2023-09-13_14h34.47.586,Trial go no go,2020.2.10,MacIntel,60,IwAR0HVFKXOAArlYFSOOkLlfb8-noU35LSlTwWeLW7WzQM5sbCVbZ6gCA177U,0.4264,,,,,,,,,,,,,,,,,,,,,,,,,,
,,,,,,space,1,0,14,14,12,1,X,space,wro65,001,,2023-09-13_14h34.47.586,Trial go no go,2020.2.10,MacIntel,60,IwAR0HVFKXOAArlYFSOOkLlfb8-noU35LSlTwWeLW7WzQM5sbCVbZ6gCA177U,0.6163,,,,,,,,,,,,,,,,,,,,,,,,,,
,,,,,,,,,,,,,,,wro65,001,,2023-09-13_14h34.47.586,Trial go no go,2020.2.10,MacIntel,60,IwAR0HVFKXOAArlYFSOOkLlfb8-noU35LSlTwWeLW7WzQM5sbCVbZ6gCA177U,,space,18.5522,space,1,0.5146,0,0,0,5,1,X,space,,,,,,,,,,,,,,
,,,,,,,,,,,,,,,wro65,001,,2023-09-13_14h34.47.586,Trial go no go,2020.2.10,MacIntel,60,IwAR0HVFKXOAArlYFSOOkLlfb8-noU35LSlTwWeLW7WzQM5sbCVbZ6gCA177U,,,,,1,,0,1,1,4,1,V,none,,,,,,,,,,,,,,
,,,,,,,,,,,,,,,wro65,001,,2023-09-13_14h34.47.586,Trial go no go,2020.2.10,MacIntel,60,IwAR0HVFKXOAArlYFSOOkLlfb8-noU35LSlTwWeLW7WzQM5sbCVbZ6gCA177U,,,,space,1,0.359,0,2,2,13,1,X,space,,,,,,,,,,,,,,
,,,,,,,,,,,,,,,wro65,001,,2023-09-13_14h34.47.586,Trial go no go,2020.2.10,MacIntel,60,IwAR0HVFKXOAArlYFSOOkLlfb8-noU35LSlTwWeLW7WzQM5sbCVbZ6gCA177U,,,,,1,,0,3,3,24,1,H,none,,,,,,,,,,,,,,
,,,,,,,,,,,,,,,wro65,001,,2023-09-13_14h34.47.586,Trial go no go,2020.2.10,MacIntel,60,IwAR0HVFKXOAArlYFSOOkLlfb8-noU35LSlTwWeLW7WzQM5sbCVbZ6gCA177U,,,,space,1,0.3261,0,4,4,48,1,X,space,,,,,,,,,,,,,,
,,,,,,,,,,,,,,,wro65,001,,2023-09-13_14h34.47.586,Trial go no go,2020.2.10,MacIntel,60,IwAR0HVFKXOAArlYFSOOkLlfb8-noU35LSlTwWeLW7WzQM5sbCVbZ6gCA177U,,,,,1,,0,5,5,9,1,W,none,,,,,,,,,,,,,,
,,,,,,,,,,,,,,,wro65,001,,2023-09-13_14h34.47.586,Trial go no go,2020.2.10,MacIntel,60,IwAR0HVFKXOAArlYFSOOkLlfb8-noU35LSlTwWeLW7WzQM5sbCVbZ6gCA177U,,,,space,1,0.2961,0,6,6,41,1,X,space,,,,,,,,,,,,,,
,,,,,,,,,,,,,,,wro65,001,,2023-09-13_14h34.47.586,Trial go no go,2020.2.10,MacIntel,60,IwAR0HVFKXOAArlYFSOOkLlfb8-noU35LSlTwWeLW7WzQM5sbCVbZ6gCA177U,,,,,1,,0,7,7,29,1,T,none,,,,,,,,,,,,,,
,,,,,,,,,,,,,,,wro65,001,,2023-09-13_14h34.47.586,Trial go no go,2020.2.10,MacIntel,60,IwAR0HVFKXOAArlYFSOOkLlfb8-noU35LSlTwWeLW7WzQM5sbCVbZ6gCA177U,,,,space,1,0.2407,0,8,8,6,1,X,space,,,,,,,,,,,,,,
,,,,,,,,,,,,,,,wro65,001,,2023-09-13_14h34.47.586,Trial go no go,2020.2.10,MacIntel,60,IwAR0HVFKXOAArlYFSOOkLlfb8-noU35LSlTwWeLW7WzQM5sbCVbZ6gCA177U,,,,space,1,0.597,0,9,9,47,1,X,space,,,,,,,,,,,,,,
,,,,,,,,,,,,,,,wro65,001,,2023-09-13_14h34.47.586,Trial go no go,2020.2.10,MacIntel,60,IwAR0HVFKXOAArlYFSOOkLlfb8-noU35LSlTwWeLW7WzQM5sbCVbZ6gCA177U,,,,space,1,0.2831,0,10,10,36,1,X,space,,,,,,,,,,,,,,
,,,,,,,,,,,,,,,wro65,001,,2023-09-13_14h34.47.586,Trial go no go,2020.2.10,MacIntel,60,IwAR0HVFKXOAArlYFSOOkLlfb8-noU35LSlTwWeLW7WzQM5sbCVbZ6gCA177U,,,,space,1,0.0519,0,11,11,22,1,X,space,,,,,,,,,,,,,,
,,,,,,,,,,,,,,,wro65,001,,2023-09-13_14h34.47.586,Trial go no go,2020.2.10,MacIntel,60,IwAR0HVFKXOAArlYFSOOkLlfb8-noU35LSlTwWeLW7WzQM5sbCVbZ6gCA177U,,,,space,1,0.2488,0,12,12,3,1,X,space,,,,,,,,,,,,,,
,,,,,,,,,,,,,,,wro65,001,,2023-09-13_14h34.47.586,Trial go no go,2020.2.10,MacIntel,60,IwAR0HVFKXOAArlYFSOOkLlfb8-noU35LSlTwWeLW7WzQM5sbCVbZ6gCA177U,,,,space,1,0.2536,0,13,13,25,1,X,space,,,,,,,,,,,,,,
,,,,,,,,,,,,,,,wro65,001,,2023-09-13_14h34.47.586,Trial go no go,2020.2.10,MacIntel,60,IwAR0HVFKXOAArlYFSOOkLlfb8-noU35LSlTwWeLW7WzQM5sbCVbZ6gCA177U,,,,space,0,0.2213,0,14,14,39,1,M,none,,,,,,,,,,,,,,
,,,,,,,,,,,,,,,wro65,001,,2023-09-13_14h34.47.586,Trial go no go,2020.2.10,MacIntel,60,IwAR0HVFKXOAArlYFSOOkLlfb8-noU35LSlTwWeLW7WzQM5sbCVbZ6gCA177U,,,,space,1,0.397,0,15,15,32,1,X,space,,,,,,,,,,,,,,
,,,,,,,,,,,,,,,wro65,001,,2023-09-13_14h34.47.586,Trial go no go,2020.2.10,MacIntel,60,IwAR0HVFKXOAArlYFSOOkLlfb8-noU35LSlTwWeLW7WzQM5sbCVbZ6gCA177U,,,,space,1,0.3029,0,16,16,40,1,X,space,,,,,,,,,,,,,,
,,,,,,,,,,,,,,,wro65,001,,2023-09-13_14h34.47.586,Trial go no go,2020.2.10,MacIntel,60,IwAR0HVFKXOAArlYFSOOkLlfb8-noU35LSlTwWeLW7WzQM5sbCVbZ6gCA177U,,,,space,1,0.3171,0,17,17,28,1,X,space,,,,,,,,,,,,,,
,,,,,,,,,,,,,,,wro65,001,,2023-09-13_14h34.47.586,Trial go no go,2020.2.10,MacIntel,60,IwAR0HVFKXOAArlYFSOOkLlfb8-noU35LSlTwWeLW7WzQM5sbCVbZ6gCA177U,,,,,1,,0,18,18,49,1,E,none,,,,,,,,,,,,,,
,,,,,,,,,,,,,,,wro65,001,,2023-09-13_14h34.47.586,Trial go no go,2020.2.10,MacIntel,60,IwAR0HVFKXOAArlYFSOOkLlfb8-noU35LSlTwWeLW7WzQM5sbCVbZ6gCA177U,,,,space,1,0.295,0,19,19,11,1,X,space,,,,,,,,,,,,,,
,,,,,,,,,,,,,,,wro65,001,,2023-09-13_14h34.47.586,Trial go no go,2020.2.10,MacIntel,60,IwAR0HVFKXOAArlYFSOOkLlfb8-noU35LSlTwWeLW7WzQM5sbCVbZ6gCA177U,,,,space,1,0.3321,0,20,20,0,1,X,space,,,,,,,,,,,,,,
,,,,,,,,,,,,,,,wro65,001,,2023-09-13_14h34.47.586,Trial go no go,2020.2.10,MacIntel,60,IwAR0HVFKXOAArlYFSOOkLlfb8-noU35LSlTwWeLW7WzQM5sbCVbZ6gCA177U,,,,space,1,0.2982,0,21,21,43,1,X,space,,,,,,,,,,,,,,
,,,,,,,,,,,,,,,wro65,001,,2023-09-13_14h34.47.586,Trial go no go,2020.2.10,MacIntel,60,IwAR0HVFKXOAArlYFSOOkLlfb8-noU35LSlTwWeLW7WzQM5sbCVbZ6gCA177U,,,,space,1,0.2996,0,22,22,35,1,X,space,,,,,,,,,,,,,,
,,,,,,,,,,,,,,,wro65,001,,2023-09-13_14h34.47.586,Trial go no go,2020.2.10,MacIntel,60,IwAR0HVFKXOAArlYFSOOkLlfb8-noU35LSlTwWeLW7WzQM5sbCVbZ6gCA177U,,,,space,1,0.2988,0,23,23,42,1,X,space,,,,,,,,,,,,,,
,,,,,,,,,,,,,,,wro65,001,,2023-09-13_14h34.47.586,Trial go no go,2020.2.10,MacIntel,60,IwAR0HVFKXOAArlYFSOOkLlfb8-noU35LSlTwWeLW7WzQM5sbCVbZ6gCA177U,,,,space,1,0.2825,0,24,24,17,1,X,space,,,,,,,,,,,,,,
,,,,,,,,,,,,,,,wro65,001,,2023-09-13_14h34.47.586,Trial go no go,2020.2.10,MacIntel,60,IwAR0HVFKXOAArlYFSOOkLlfb8-noU35LSlTwWeLW7WzQM5sbCVbZ6gCA177U,,,,space,1,0.2887,0,25,25,2,1,X,space,,,,,,,,,,,,,,
,,,,,,,,,,,,,,,wro65,001,,2023-09-13_14h34.47.586,Trial go no go,2020.2.10,MacIntel,60,IwAR0HVFKXOAArlYFSOOkLlfb8-noU35LSlTwWeLW7WzQM5sbCVbZ6gCA177U,,,,space,0,0.2442,0,26,26,19,1,K,none,,,,,,,,,,,,,,
,,,,,,,,,,,,,,,wro65,001,,2023-09-13_14h34.47.586,Trial go no go,2020.2.10,MacIntel,60,IwAR0HVFKXOAArlYFSOOkLlfb8-noU35LSlTwWeLW7WzQM5sbCVbZ6gCA177U,,,,,1,,0,27,27,44,1,F,none,,,,,,,,,,,,,,
,,,,,,,,,,,,,,,wro65,001,,2023-09-13_14h34.47.586,Trial go no go,2020.2.10,MacIntel,60,IwAR0HVFKXOAArlYFSOOkLlfb8-noU35LSlTwWeLW7WzQM5sbCVbZ6gCA177U,,,,space,1,0.3087,0,28,28,8,1,X,space,,,,,,,,,,,,,,
,,,,,,,,,,,,,,,wro65,001,,2023-09-13_14h34.47.586,Trial go no go,2020.2.10,MacIntel,60,IwAR0HVFKXOAArlYFSOOkLlfb8-noU35LSlTwWeLW7WzQM5sbCVbZ6gCA177U,,,,space,1,0.3053,0,29,29,15,1,X,space,,,,,,,,,,,,,,
,,,,,,,,,,,,,,,wro65,001,,2023-09-13_14h34.47.586,Trial go no go,2020.2.10,MacIntel,60,IwAR0HVFKXOAArlYFSOOkLlfb8-noU35LSlTwWeLW7WzQM5sbCVbZ6gCA177U,,,,space,1,0.3301,0,30,30,30,1,X,space,,,,,,,,,,,,,,
,,,,,,,,,,,,,,,wro65,001,,2023-09-13_14h34.47.586,Trial go no go,2020.2.10,MacIntel,60,IwAR0HVFKXOAArlYFSOOkLlfb8-noU35LSlTwWeLW7WzQM5sbCVbZ6gCA177U,,,,,1,,0,31,31,14,1,Y,none,,,,,,,,,,,,,,
,,,,,,,,,,,,,,,wro65,001,,2023-09-13_14h34.47.586,Trial go no go,2020.2.10,MacIntel,60,IwAR0HVFKXOAArlYFSOOkLlfb8-noU35LSlTwWeLW7WzQM5sbCVbZ6gCA177U,,,,space,1,0.2598,0,32,32,12,1,X,space,,,,,,,,,,,,,,
,,,,,,,,,,,,,,,wro65,001,,2023-09-13_14h34.47.586,Trial go no go,2020.2.10,MacIntel,60,IwAR0HVFKXOAArlYFSOOkLlfb8-noU35LSlTwWeLW7WzQM5sbCVbZ6gCA177U,,,,,1,,0,33,33,34,1,N,none,,,,,,,,,,,,,,
,,,,,,,,,,,,,,,wro65,001,,2023-09-13_14h34.47.586,Trial go no go,2020.2.10,MacIntel,60,IwAR0HVFKXOAArlYFSOOkLlfb8-noU35LSlTwWeLW7WzQM5sbCVbZ6gCA177U,,,,space,1,0.2704,0,34,34,27,1,X,space,,,,,,,,,,,,,,
,,,,,,,,,,,,,,,wro65,001,,2023-09-13_14h34.47.586,Trial go no go,2020.2.10,MacIntel,60,IwAR0HVFKXOAArlYFSOOkLlfb8-noU35LSlTwWeLW7WzQM5sbCVbZ6gCA177U,,,,space,1,0.4026,0,35,35,26,1,X,space,,,,,,,,,,,,,,
,,,,,,,,,,,,,,,wro65,001,,2023-09-13_14h34.47.586,Trial go no go,2020.2.10,MacIntel,60,IwAR0HVFKXOAArlYFSOOkLlfb8-noU35LSlTwWeLW7WzQM5sbCVbZ6gCA177U,,,,space,1,0.2998,0,36,36,7,1,X,space,,,,,,,,,,,,,,
,,,,,,,,,,,,,,,wro65,001,,2023-09-13_14h34.47.586,Trial go no go,2020.2.10,MacIntel,60,IwAR0HVFKXOAArlYFSOOkLlfb8-noU35LSlTwWeLW7WzQM5sbCVbZ6gCA177U,,,,space,1,0.2673,0,37,37,37,1,X,space,,,,,,,,,,,,,,
,,,,,,,,,,,,,,,wro65,001,,2023-09-13_14h34.47.586,Trial go no go,2020.2.10,MacIntel,60,IwAR0HVFKXOAArlYFSOOkLlfb8-noU35LSlTwWeLW7WzQM5sbCVbZ6gCA177U,,,,space,1,0.2406,0,38,38,18,1,X,space,,,,,,,,,,,,,,
,,,,,,,,,,,,,,,wro65,001,,2023-09-13_14h34.47.586,Trial go no go,2020.2.10,MacIntel,60,IwAR0HVFKXOAArlYFSOOkLlfb8-noU35LSlTwWeLW7WzQM5sbCVbZ6gCA177U,,,,space,1,0.2873,0,39,39,45,1,X,space,,,,,,,,,,,,,,
,,,,,,,,,,,,,,,wro65,001,,2023-09-13_14h34.47.586,Trial go no go,2020.2.10,MacIntel,60,IwAR0HVFKXOAArlYFSOOkLlfb8-noU35LSlTwWeLW7WzQM5sbCVbZ6gCA177U,,,,space,1,0.2517,0,40,40,16,1,X,space,,,,,,,,,,,,,,
,,,,,,,,,,,,,,,wro65,001,,2023-09-13_14h34.47.586,Trial go no go,2020.2.10,MacIntel,60,IwAR0HVFKXOAArlYFSOOkLlfb8-noU35LSlTwWeLW7WzQM5sbCVbZ6gCA177U,,,,space,1,0.2858,0,41,41,33,1,X,space,,,,,,,,,,,,,,
,,,,,,,,,,,,,,,wro65,001,,2023-09-13_14h34.47.586,Trial go no go,2020.2.10,MacIntel,60,IwAR0HVFKXOAArlYFSOOkLlfb8-noU35LSlTwWeLW7WzQM5sbCVbZ6gCA177U,,,,space,1,0.3002,0,42,42,38,1,X,space,,,,,,,,,,,,,,
,,,,,,,,,,,,,,,wro65,001,,2023-09-13_14h34.47.586,Trial go no go,2020.2.10,MacIntel,60,IwAR0HVFKXOAArlYFSOOkLlfb8-noU35LSlTwWeLW7WzQM5sbCVbZ6gCA177U,,,,space,1,0.2884,0,43,43,20,1,X,space,,,,,,,,,,,,,,
,,,,,,,,,,,,,,,wro65,001,,2023-09-13_14h34.47.586,Trial go no go,2020.2.10,MacIntel,60,IwAR0HVFKXOAArlYFSOOkLlfb8-noU35LSlTwWeLW7WzQM5sbCVbZ6gCA177U,,,,space,1,0.3042,0,44,44,10,1,X,space,,,,,,,,,,,,,,
,,,,,,,,,,,,,,,wro65,001,,2023-09-13_14h34.47.586,Trial go no go,2020.2.10,MacIntel,60,IwAR0HVFKXOAArlYFSOOkLlfb8-noU35LSlTwWeLW7WzQM5sbCVbZ6gCA177U,,,,space,1,0.2829,0,45,45,31,1,X,space,,,,,,,,,,,,,,
,,,,,,,,,,,,,,,wro65,001,,2023-09-13_14h34.47.586,Trial go no go,2020.2.10,MacIntel,60,IwAR0HVFKXOAArlYFSOOkLlfb8-noU35LSlTwWeLW7WzQM5sbCVbZ6gCA177U,,,,space,1,0.2726,0,46,46,23,1,X,space,,,,,,,,,,,,,,
,,,,,,,,,,,,,,,wro65,001,,2023-09-13_14h34.47.586,Trial go no go,2020.2.10,MacIntel,60,IwAR0HVFKXOAArlYFSOOkLlfb8-noU35LSlTwWeLW7WzQM5sbCVbZ6gCA177U,,,,space,1,0.3341,0,47,47,1,1,X,space,,,,,,,,,,,,,,
,,,,,,,,,,,,,,,wro65,001,,2023-09-13_14h34.47.586,Trial go no go,2020.2.10,MacIntel,60,IwAR0HVFKXOAArlYFSOOkLlfb8-noU35LSlTwWeLW7WzQM5sbCVbZ6gCA177U,,,,space,1,0.2502,0,48,48,21,1,X,space,,,,,,,,,,,,,,
,,,,,,,,,,,,,,,wro65,001,,2023-09-13_14h34.47.586,Trial go no go,2020.2.10,MacIntel,60,IwAR0HVFKXOAArlYFSOOkLlfb8-noU35LSlTwWeLW7WzQM5sbCVbZ6gCA177U,,,,space,1,0.2924,0,49,49,46,1,X,space,,,,,,,,,,,,,,
,,,,,,,,,,,,,,,wro65,001,,2023-09-13_14h34.47.586,Trial go no go,2020.2.10,MacIntel,60,IwAR0HVFKXOAArlYFSOOkLlfb8-noU35LSlTwWeLW7WzQM5sbCVbZ6gCA177U,,,,,,,,,,,,,,z,15.7831,,1,0,0,0,29,1,X,none,,,
,,,,,,,,,,,,,,,wro65,001,,2023-09-13_14h34.47.586,Trial go no go,2020.2.10,MacIntel,60,IwAR0HVFKXOAArlYFSOOkLlfb8-noU35LSlTwWeLW7WzQM5sbCVbZ6gCA177U,,,,,,,,,,,,,,,,space,1,0,1,1,46,1,F,space,0.423,,
,,,,,,,,,,,,,,,wro65,001,,2023-09-13_14h34.47.586,Trial go no go,2020.2.10,MacIntel,60,IwAR0HVFKXOAArlYFSOOkLlfb8-noU35LSlTwWeLW7WzQM5sbCVbZ6gCA177U,,,,,,,,,,,,,,,,space,0,0,2,2,39,1,X,none,0.2778,,
,,,,,,,,,,,,,,,wro65,001,,2023-09-13_14h34.47.586,Trial go no go,2020.2.10,MacIntel,60,IwAR0HVFKXOAArlYFSOOkLlfb8-noU35LSlTwWeLW7WzQM5sbCVbZ6gCA177U,,,,,,,,,,,,,,,,space,1,0,3,3,16,1,N,space,0.3244,,
,,,,,,,,,,,,,,,wro65,001,,2023-09-13_14h34.47.586,Trial go no go,2020.2.10,MacIntel,60,IwAR0HVFKXOAArlYFSOOkLlfb8-noU35LSlTwWeLW7WzQM5sbCVbZ6gCA177U,,,,,,,,,,,,,,,,space,1,0,4,4,7,1,A,space,0.3351,,
,,,,,,,,,,,,,,,wro65,001,,2023-09-13_14h34.47.586,Trial go no go,2020.2.10,MacIntel,60,IwAR0HVFKXOAArlYFSOOkLlfb8-noU35LSlTwWeLW7WzQM5sbCVbZ6gCA177U,,,,,,,,,,,,,,,,space,1,0,5,5,15,1,V,space,0.341,,
,,,,,,,,,,,,,,,wro65,001,,2023-09-13_14h34.47.586,Trial go no go,2020.2.10,MacIntel,60,IwAR0HVFKXOAArlYFSOOkLlfb8-noU35LSlTwWeLW7WzQM5sbCVbZ6gCA177U,,,,,,,,,,,,,,,,space,1,0,6,6,37,1,W,space,0.2896,,
,,,,,,,,,,,,,,,wro65,001,,2023-09-13_14h34.47.586,Trial go no go,2020.2.10,MacIntel,60,IwAR0HVFKXOAArlYFSOOkLlfb8-noU35LSlTwWeLW7WzQM5sbCVbZ6gCA177U,,,,,,,,,,,,,,,,space,1,0,7,7,43,1,I,space,0.3924,,
,,,,,,,,,,,,,,,wro65,001,,2023-09-13_14h34.47.586,Trial go no go,2020.2.10,MacIntel,60,IwAR0HVFKXOAArlYFSOOkLlfb8-noU35LSlTwWeLW7WzQM5sbCVbZ6gCA177U,,,,,,,,,,,,,,,,space,1,0,8,8,21,1,R,space,0.2454,,
,,,,,,,,,,,,,,,wro65,001,,2023-09-13_14h34.47.586,Trial go no go,2020.2.10,MacIntel,60,IwAR0HVFKXOAArlYFSOOkLlfb8-noU35LSlTwWeLW7WzQM5sbCVbZ6gCA177U,,,,,,,,,,,,,,,,space,1,0,9,9,35,1,N,space,0.2428,,
,,,,,,,,,,,,,,,wro65,001,,2023-09-13_14h34.47.586,Trial go no go,2020.2.10,MacIntel,60,IwAR0HVFKXOAArlYFSOOkLlfb8-noU35LSlTwWeLW7WzQM5sbCVbZ6gCA177U,,,,,,,,,,,,,,,,space,0,0,10,10,49,1,X,none,0.2422,,
,,,,,,,,,,,,,,,wro65,001,,2023-09-13_14h34.47.586,Trial go no go,2020.2.10,MacIntel,60,IwAR0HVFKXOAArlYFSOOkLlfb8-noU35LSlTwWeLW7WzQM5sbCVbZ6gCA177U,,,,,,,,,,,,,,,,space,1,0,11,11,6,1,I,space,0.2924,,
,,,,,,,,,,,,,,,wro65,001,,2023-09-13_14h34.47.586,Trial go no go,2020.2.10,MacIntel,60,IwAR0HVFKXOAArlYFSOOkLlfb8-noU35LSlTwWeLW7WzQM5sbCVbZ6gCA177U,,,,,,,,,,,,,,,,space,1,0,12,12,42,1,Y,space,0.3458,,
,,,,,,,,,,,,,,,wro65,001,,2023-09-13_14h34.47.586,Trial go no go,2020.2.10,MacIntel,60,IwAR0HVFKXOAArlYFSOOkLlfb8-noU35LSlTwWeLW7WzQM5sbCVbZ6gCA177U,,,,,,,,,,,,,,,,space,1,0,13,13,28,1,H,space,0.279,,
,,,,,,,,,,,,,,,wro65,001,,2023-09-13_14h34.47.586,Trial go no go,2020.2.10,MacIntel,60,IwAR0HVFKXOAArlYFSOOkLlfb8-noU35LSlTwWeLW7WzQM5sbCVbZ6gCA177U,,,,,,,,,,,,,,,,,1,0,14,14,14,1,X,none,,,
,,,,,,,,,,,,,,,wro65,001,,2023-09-13_14h34.47.586,Trial go no go,2020.2.10,MacIntel,60,IwAR0HVFKXOAArlYFSOOkLlfb8-noU35LSlTwWeLW7WzQM5sbCVbZ6gCA177U,,,,,,,,,,,,,,,,space,0,0,15,15,19,1,X,none,0.2793,,
,,,,,,,,,,,,,,,wro65,001,,2023-09-13_14h34.47.586,Trial go no go,2020.2.10,MacIntel,60,IwAR0HVFKXOAArlYFSOOkLlfb8-noU35LSlTwWeLW7WzQM5sbCVbZ6gCA177U,,,,,,,,,,,,,,,,space,1,0,16,16,1,1,E,space,0.2591,,
,,,,,,,,,,,,,,,wro65,001,,2023-09-13_14h34.47.586,Trial go no go,2020.2.10,MacIntel,60,IwAR0HVFKXOAArlYFSOOkLlfb8-noU35LSlTwWeLW7WzQM5sbCVbZ6gCA177U,,,,,,,,,,,,,,,,space,1,0,17,17,11,1,K,space,0.359,,
,,,,,,,,,,,,,,,wro65,001,,2023-09-13_14h34.47.586,Trial go no go,2020.2.10,MacIntel,60,IwAR0HVFKXOAArlYFSOOkLlfb8-noU35LSlTwWeLW7WzQM5sbCVbZ6gCA177U,,,,,,,,,,,,,,,,space,1,0,18,18,40,1,R,space,0.2612,,
,,,,,,,,,,,,,,,wro65,001,,2023-09-13_14h34.47.586,Trial go no go,2020.2.10,MacIntel,60,IwAR0HVFKXOAArlYFSOOkLlfb8-noU35LSlTwWeLW7WzQM5sbCVbZ6gCA177U,,,,,,,,,,,,,,,,space,1,0,19,19,36,1,M,space,0.2758,,
,,,,,,,,,,,,,,,wro65,001,,2023-09-13_14h34.47.586,Trial go no go,2020.2.10,MacIntel,60,IwAR0HVFKXOAArlYFSOOkLlfb8-noU35LSlTwWeLW7WzQM5sbCVbZ6gCA177U,,,,,,,,,,,,,,,,space,1,0,20,20,0,1,W,space,0.2897,,
,,,,,,,,,,,,,,,wro65,001,,2023-09-13_14h34.47.586,Trial go no go,2020.2.10,MacIntel,60,IwAR0HVFKXOAArlYFSOOkLlfb8-noU35LSlTwWeLW7WzQM5sbCVbZ6gCA177U,,,,,,,,,,,,,,,,space,1,0,21,21,41,1,T,space,0.2978,,
,,,,,,,,,,,,,,,wro65,001,,2023-09-13_14h34.47.586,Trial go no go,2020.2.10,MacIntel,60,IwAR0HVFKXOAArlYFSOOkLlfb8-noU35LSlTwWeLW7WzQM5sbCVbZ6gCA177U,,,,,,,,,,,,,,,,space,1,0,22,22,3,1,T,space,0.2984,,
,,,,,,,,,,,,,,,wro65,001,,2023-09-13_14h34.47.586,Trial go no go,2020.2.10,MacIntel,60,IwAR0HVFKXOAArlYFSOOkLlfb8-noU35LSlTwWeLW7WzQM5sbCVbZ6gCA177U,,,,,,,,,,,,,,,,space,1,0,23,23,48,1,K,space,0.2951,,
,,,,,,,,,,,,,,,wro65,001,,2023-09-13_14h34.47.586,Trial go no go,2020.2.10,MacIntel,60,IwAR0HVFKXOAArlYFSOOkLlfb8-noU35LSlTwWeLW7WzQM5sbCVbZ6gCA177U,,,,,,,,,,,,,,,,space,0,0,24,24,44,1,X,none,0.2831,,
,,,,,,,,,,,,,,,wro65,001,,2023-09-13_14h34.47.586,Trial go no go,2020.2.10,MacIntel,60,IwAR0HVFKXOAArlYFSOOkLlfb8-noU35LSlTwWeLW7WzQM5sbCVbZ6gCA177U,,,,,,,,,,,,,,,,space,1,0,25,25,5,1,Y,space,0.3233,,
,,,,,,,,,,,,,,,wro65,001,,2023-09-13_14h34.47.586,Trial go no go,2020.2.10,MacIntel,60,IwAR0HVFKXOAArlYFSOOkLlfb8-noU35LSlTwWeLW7WzQM5sbCVbZ6gCA177U,,,,,,,,,,,,,,,,,0,0,26,26,25,1,I,space,,,
,,,,,,,,,,,,,,,wro65,001,,2023-09-13_14h34.47.586,Trial go no go,2020.2.10,MacIntel,60,IwAR0HVFKXOAArlYFSOOkLlfb8-noU35LSlTwWeLW7WzQM5sbCVbZ6gCA177U,,,,,,,,,,,,,,,,space,1,0,27,27,18,1,W,space,0.3633,,
,,,,,,,,,,,,,,,wro65,001,,2023-09-13_14h34.47.586,Trial go no go,2020.2.10,MacIntel,60,IwAR0HVFKXOAArlYFSOOkLlfb8-noU35LSlTwWeLW7WzQM5sbCVbZ6gCA177U,,,,,,,,,,,,,,,,,1,0,28,28,24,1,X,none,,,
,,,,,,,,,,,,,,,wro65,001,,2023-09-13_14h34.47.586,Trial go no go,2020.2.10,MacIntel,60,IwAR0HVFKXOAArlYFSOOkLlfb8-noU35LSlTwWeLW7WzQM5sbCVbZ6gCA177U,,,,,,,,,,,,,,,,space,1,0,29,29,12,1,L,space,0.2926,,
,,,,,,,,,,,,,,,wro65,001,,2023-09-13_14h34.47.586,Trial go no go,2020.2.10,MacIntel,60,IwAR0HVFKXOAArlYFSOOkLlfb8-noU35LSlTwWeLW7WzQM5sbCVbZ6gCA177U,,,,,,,,,,,,,,,,space,1,0,30,30,23,1,Y,space,0.3674,,
,,,,,,,,,,,,,,,wro65,001,,2023-09-13_14h34.47.586,Trial go no go,2020.2.10,MacIntel,60,IwAR0HVFKXOAArlYFSOOkLlfb8-noU35LSlTwWeLW7WzQM5sbCVbZ6gCA177U,,,,,,,,,,,,,,,,space,1,0,31,31,30,1,K,space,0.3243,,
,,,,,,,,,,,,,,,wro65,001,,2023-09-13_14h34.47.586,Trial go no go,2020.2.10,MacIntel,60,IwAR0HVFKXOAArlYFSOOkLlfb8-noU35LSlTwWeLW7WzQM5sbCVbZ6gCA177U,,,,,,,,,,,,,,,,space,1,0,32,32,22,1,T,space,0.312,,
,,,,,,,,,,,,,,,wro65,001,,2023-09-13_14h34.47.586,Trial go no go,2020.2.10,MacIntel,60,IwAR0HVFKXOAArlYFSOOkLlfb8-noU35LSlTwWeLW7WzQM5sbCVbZ6gCA177U,,,,,,,,,,,,,,,,space,1,0,33,33,47,1,H,space,0.3421,,
,,,,,,,,,,,,,,,wro65,001,,2023-09-13_14h34.47.586,Trial go no go,2020.2.10,MacIntel,60,IwAR0HVFKXOAArlYFSOOkLlfb8-noU35LSlTwWeLW7WzQM5sbCVbZ6gCA177U,,,,,,,,,,,,,,,,space,1,0,34,34,26,1,A,space,0.3112,,
,,,,,,,,,,,,,,,wro65,001,,2023-09-13_14h34.47.586,Trial go no go,2020.2.10,MacIntel,60,IwAR0HVFKXOAArlYFSOOkLlfb8-noU35LSlTwWeLW7WzQM5sbCVbZ6gCA177U,,,,,,,,,,,,,,,,space,1,0,35,35,17,1,M,space,0.4238,,
,,,,,,,,,,,,,,,wro65,001,,2023-09-13_14h34.47.586,Trial go no go,2020.2.10,MacIntel,60,IwAR0HVFKXOAArlYFSOOkLlfb8-noU35LSlTwWeLW7WzQM5sbCVbZ6gCA177U,,,,,,,,,,,,,,,,space,1,0,36,36,38,1,E,space,0.3173,,
,,,,,,,,,,,,,,,wro65,001,,2023-09-13_14h34.47.586,Trial go no go,2020.2.10,MacIntel,60,IwAR0HVFKXOAArlYFSOOkLlfb8-noU35LSlTwWeLW7WzQM5sbCVbZ6gCA177U,,,,,,,,,,,,,,,,,1,0,37,37,9,1,X,none,,,
,,,,,,,,,,,,,,,wro65,001,,2023-09-13_14h34.47.586,Trial go no go,2020.2.10,MacIntel,60,IwAR0HVFKXOAArlYFSOOkLlfb8-noU35LSlTwWeLW7WzQM5sbCVbZ6gCA177U,,,,,,,,,,,,,,,,space,1,0,38,38,2,1,R,space,0.2415,,
,,,,,,,,,,,,,,,wro65,001,,2023-09-13_14h34.47.586,Trial go no go,2020.2.10,MacIntel,60,IwAR0HVFKXOAArlYFSOOkLlfb8-noU35LSlTwWeLW7WzQM5sbCVbZ6gCA177U,,,,,,,,,,,,,,,,space,1,0,39,39,13,1,Z,space,0.2735,,
,,,,,,,,,,,,,,,wro65,001,,2023-09-13_14h34.47.586,Trial go no go,2020.2.10,MacIntel,60,IwAR0HVFKXOAArlYFSOOkLlfb8-noU35LSlTwWeLW7WzQM5sbCVbZ6gCA177U,,,,,,,,,,,,,,,,space,1,0,40,40,10,1,H,space,0.2905,,
,,,,,,,,,,,,,,,wro65,001,,2023-09-13_14h34.47.586,Trial go no go,2020.2.10,MacIntel,60,IwAR0HVFKXOAArlYFSOOkLlfb8-noU35LSlTwWeLW7WzQM5sbCVbZ6gCA177U,,,,,,,,,,,,,,,,space,1,0,41,41,8,1,F,space,0.3258,,
,,,,,,,,,,,,,,,wro65,001,,2023-09-13_14h34.47.586,Trial go no go,2020.2.10,MacIntel,60,IwAR0HVFKXOAArlYFSOOkLlfb8-noU35LSlTwWeLW7WzQM5sbCVbZ6gCA177U,,,,,,,,,,,,,,,,space,1,0,42,42,20,1,E,space,0.3,,
,,,,,,,,,,,,,,,wro65,001,,2023-09-13_14h34.47.586,Trial go no go,2020.2.10,MacIntel,60,IwAR0HVFKXOAArlYFSOOkLlfb8-noU35LSlTwWeLW7WzQM5sbCVbZ6gCA177U,,,,,,,,,,,,,,,,space,1,0,43,43,31,1,L,space,0.2802,,
,,,,,,,,,,,,,,,wro65,001,,2023-09-13_14h34.47.586,Trial go no go,2020.2.10,MacIntel,60,IwAR0HVFKXOAArlYFSOOkLlfb8-noU35LSlTwWeLW7WzQM5sbCVbZ6gCA177U,,,,,,,,,,,,,,,,space,1,0,44,44,45,1,A,space,0.2449,,
,,,,,,,,,,,,,,,wro65,001,,2023-09-13_14h34.47.586,Trial go no go,2020.2.10,MacIntel,60,IwAR0HVFKXOAArlYFSOOkLlfb8-noU35LSlTwWeLW7WzQM5sbCVbZ6gCA177U,,,,,,,,,,,,,,,,space,0,0,45,45,4,1,X,none,0.2602,,
,,,,,,,,,,,,,,,wro65,001,,2023-09-13_14h34.47.586,Trial go no go,2020.2.10,MacIntel,60,IwAR0HVFKXOAArlYFSOOkLlfb8-noU35LSlTwWeLW7WzQM5sbCVbZ6gCA177U,,,,,,,,,,,,,,,,space,1,0,46,46,32,1,Z,space,0.3314,,
,,,,,,,,,,,,,,,wro65,001,,2023-09-13_14h34.47.586,Trial go no go,2020.2.10,MacIntel,60,IwAR0HVFKXOAArlYFSOOkLlfb8-noU35LSlTwWeLW7WzQM5sbCVbZ6gCA177U,,,,,,,,,,,,,,,,,1,0,47,47,34,1,X,none,,,
,,,,,,,,,,,,,,,wro65,001,,2023-09-13_14h34.47.586,Trial go no go,2020.2.10,MacIntel,60,IwAR0HVFKXOAArlYFSOOkLlfb8-noU35LSlTwWeLW7WzQM5sbCVbZ6gCA177U,,,,,,,,,,,,,,,,space,1,0,48,48,27,1,F,space,0.3149,,
,,,,,,,,,,,,,,,wro65,001,,2023-09-13_14h34.47.586,Trial go no go,2020.2.10,MacIntel,60,IwAR0HVFKXOAArlYFSOOkLlfb8-noU35LSlTwWeLW7WzQM5sbCVbZ6gCA177U,,,,,,,,,,,,,,,,space,1,0,49,49,33,1,V,space,0.3307,,
,,,,,,,,,,,,,,,wro65,001,,2023-09-13_14h34.47.586,Trial go no go,2020.2.10,MacIntel,60,IwAR0HVFKXOAArlYFSOOkLlfb8-noU35LSlTwWeLW7WzQM5sbCVbZ6gCA177U,,,,,,,,,,,,,,,,,,,,,,,,,,space,8.8076
