resp_Welcome.keys,resp_Welcome.rt,resp_Instr_Intro.keys,resp_Instr_Intro.rt,resp_Instr_Prac1.keys,resp_Instr_Prac1.rt,resp_trial_Prac1.keys,resp_trial_Prac1.corr,prac_trials.thisRepN,prac_trials.thisTrialN,prac_trials.thisN,prac_trials.thisIndex,prac_trials.ran,stimulus_prac1,corrAns_prac1,participant,session,indywidualny kod,date,expName,psychopyVersion,OS,frameRate,fbclid,resp_trial_Prac1.rt,resp_Instr_Test1.keys,resp_Instr_Test1.rt,resp_trial_Test1.keys,resp_trial_Test1.corr,resp_trial_Test1.rt,test1trial.thisRepN,test1trial.thisTrialN,test1trial.thisN,test1trial.thisIndex,test1trial.ran,stimulus_test1,corrAns_test1,resp_Instr_Test2.keys,resp_Instr_Test2.rt,key_resp_Test2.keys,key_resp_Test2.corr,test2trial.thisRepN,test2trial.thisTrialN,test2trial.thisN,test2trial.thisIndex,test2trial.ran,stimulus_test2,corrAns_test2,key_resp_Test2.rt,resp_theEnd.keys,resp_theEnd.rt
space,13.8883,space,13.9901,space,10.8874,,1,0,0,0,4,1,W,none,WRO79,001,,2023-11-18_11h43.00.180,Trial go no go,2020.2.10,MacIntel,60,IwAR06J3gt4aEMWeBaiw-HHsmept4008tZVGqA-H1F6yaMIgc23bH9IPMPWjA,,,,,,,,,,,,,,,,,,,,,,,,,,,
,,,,,,space,1,0,1,1,13,1,X,space,WRO79,001,,2023-11-18_11h43.00.180,Trial go no go,2020.2.10,MacIntel,60,IwAR06J3gt4aEMWeBaiw-HHsmept4008tZVGqA-H1F6yaMIgc23bH9IPMPWjA,0.4614,,,,,,,,,,,,,,,,,,,,,,,,,,
,,,,,,space,1,0,2,2,7,1,X,space,WRO79,001,,2023-11-18_11h43.00.180,Trial go no go,2020.2.10,MacIntel,60,IwAR06J3gt4aEMWeBaiw-HHsmept4008tZVGqA-H1F6yaMIgc23bH9IPMPWjA,0.4011,,,,,,,,,,,,,,,,,,,,,,,,,,
,,,,,,space,1,0,3,3,6,1,X,space,WRO79,001,,2023-11-18_11h43.00.180,Trial go no go,2020.2.10,MacIntel,60,IwAR06J3gt4aEMWeBaiw-HHsmept4008tZVGqA-H1F6yaMIgc23bH9IPMPWjA,0.3592,,,,,,,,,,,,,,,,,,,,,,,,,,
,,,,,,space,1,0,4,4,10,1,X,space,WRO79,001,,2023-11-18_11h43.00.180,Trial go no go,2020.2.10,MacIntel,60,IwAR06J3gt4aEMWeBaiw-HHsmept4008tZVGqA-H1F6yaMIgc23bH9IPMPWjA,0.3722,,,,,,,,,,,,,,,,,,,,,,,,,,
,,,,,,space,1,0,5,5,1,1,X,space,WRO79,001,,2023-11-18_11h43.00.180,Trial go no go,2020.2.10,MacIntel,60,IwAR06J3gt4aEMWeBaiw-HHsmept4008tZVGqA-H1F6yaMIgc23bH9IPMPWjA,0.4412,,,,,,,,,,,,,,,,,,,,,,,,,,
,,,,,,space,1,0,6,6,3,1,X,space,WRO79,001,,2023-11-18_11h43.00.180,Trial go no go,2020.2.10,MacIntel,60,IwAR06J3gt4aEMWeBaiw-HHsmept4008tZVGqA-H1F6yaMIgc23bH9IPMPWjA,0.3512,,,,,,,,,,,,,,,,,,,,,,,,,,
,,,,,,space,1,0,7,7,8,1,X,space,WRO79,001,,2023-11-18_11h43.00.180,Trial go no go,2020.2.10,MacIntel,60,IwAR06J3gt4aEMWeBaiw-HHsmept4008tZVGqA-H1F6yaMIgc23bH9IPMPWjA,0.384,,,,,,,,,,,,,,,,,,,,,,,,,,
,,,,,,space,1,0,8,8,12,1,X,space,WRO79,001,,2023-11-18_11h43.00.180,Trial go no go,2020.2.10,MacIntel,60,IwAR06J3gt4aEMWeBaiw-HHsmept4008tZVGqA-H1F6yaMIgc23bH9IPMPWjA,0.3695,,,,,,,,,,,,,,,,,,,,,,,,,,
,,,,,,space,1,0,9,9,0,1,X,space,WRO79,001,,2023-11-18_11h43.00.180,Trial go no go,2020.2.10,MacIntel,60,IwAR06J3gt4aEMWeBaiw-HHsmept4008tZVGqA-H1F6yaMIgc23bH9IPMPWjA,0.5016,,,,,,,,,,,,,,,,,,,,,,,,,,
,,,,,,,1,0,10,10,9,1,V,none,WRO79,001,,2023-11-18_11h43.00.180,Trial go no go,2020.2.10,MacIntel,60,IwAR06J3gt4aEMWeBaiw-HHsmept4008tZVGqA-H1F6yaMIgc23bH9IPMPWjA,,,,,,,,,,,,,,,,,,,,,,,,,,,
,,,,,,space,1,0,11,11,11,1,X,space,WRO79,001,,2023-11-18_11h43.00.180,Trial go no go,2020.2.10,MacIntel,60,IwAR06J3gt4aEMWeBaiw-HHsmept4008tZVGqA-H1F6yaMIgc23bH9IPMPWjA,0.4702,,,,,,,,,,,,,,,,,,,,,,,,,,
,,,,,,space,1,0,12,12,5,1,X,space,WRO79,001,,2023-11-18_11h43.00.180,Trial go no go,2020.2.10,MacIntel,60,IwAR06J3gt4aEMWeBaiw-HHsmept4008tZVGqA-H1F6yaMIgc23bH9IPMPWjA,0.3528,,,,,,,,,,,,,,,,,,,,,,,,,,
,,,,,,space,1,0,13,13,2,1,X,space,WRO79,001,,2023-11-18_11h43.00.180,Trial go no go,2020.2.10,MacIntel,60,IwAR06J3gt4aEMWeBaiw-HHsmept4008tZVGqA-H1F6yaMIgc23bH9IPMPWjA,0.3724,,,,,,,,,,,,,,,,,,,,,,,,,,
,,,,,,,1,0,14,14,14,1,K,none,WRO79,001,,2023-11-18_11h43.00.180,Trial go no go,2020.2.10,MacIntel,60,IwAR06J3gt4aEMWeBaiw-HHsmept4008tZVGqA-H1F6yaMIgc23bH9IPMPWjA,,,,,,,,,,,,,,,,,,,,,,,,,,,
,,,,,,,,,,,,,,,WRO79,001,,2023-11-18_11h43.00.180,Trial go no go,2020.2.10,MacIntel,60,IwAR06J3gt4aEMWeBaiw-HHsmept4008tZVGqA-H1F6yaMIgc23bH9IPMPWjA,,space,7.1671,space,1,0.3719,0,0,0,0,1,X,space,,,,,,,,,,,,,,
,,,,,,,,,,,,,,,WRO79,001,,2023-11-18_11h43.00.180,Trial go no go,2020.2.10,MacIntel,60,IwAR06J3gt4aEMWeBaiw-HHsmept4008tZVGqA-H1F6yaMIgc23bH9IPMPWjA,,,,space,1,0.3833,0,1,1,42,1,X,space,,,,,,,,,,,,,,
,,,,,,,,,,,,,,,WRO79,001,,2023-11-18_11h43.00.180,Trial go no go,2020.2.10,MacIntel,60,IwAR06J3gt4aEMWeBaiw-HHsmept4008tZVGqA-H1F6yaMIgc23bH9IPMPWjA,,,,,1,,0,2,2,14,1,Y,none,,,,,,,,,,,,,,
,,,,,,,,,,,,,,,WRO79,001,,2023-11-18_11h43.00.180,Trial go no go,2020.2.10,MacIntel,60,IwAR06J3gt4aEMWeBaiw-HHsmept4008tZVGqA-H1F6yaMIgc23bH9IPMPWjA,,,,space,1,0.2652,0,3,3,36,1,X,space,,,,,,,,,,,,,,
,,,,,,,,,,,,,,,WRO79,001,,2023-11-18_11h43.00.180,Trial go no go,2020.2.10,MacIntel,60,IwAR06J3gt4aEMWeBaiw-HHsmept4008tZVGqA-H1F6yaMIgc23bH9IPMPWjA,,,,space,1,0.3188,0,4,4,38,1,X,space,,,,,,,,,,,,,,
,,,,,,,,,,,,,,,WRO79,001,,2023-11-18_11h43.00.180,Trial go no go,2020.2.10,MacIntel,60,IwAR06J3gt4aEMWeBaiw-HHsmept4008tZVGqA-H1F6yaMIgc23bH9IPMPWjA,,,,space,1,0.3162,0,5,5,13,1,X,space,,,,,,,,,,,,,,
,,,,,,,,,,,,,,,WRO79,001,,2023-11-18_11h43.00.180,Trial go no go,2020.2.10,MacIntel,60,IwAR06J3gt4aEMWeBaiw-HHsmept4008tZVGqA-H1F6yaMIgc23bH9IPMPWjA,,,,space,1,0.3389,0,6,6,33,1,X,space,,,,,,,,,,,,,,
,,,,,,,,,,,,,,,WRO79,001,,2023-11-18_11h43.00.180,Trial go no go,2020.2.10,MacIntel,60,IwAR06J3gt4aEMWeBaiw-HHsmept4008tZVGqA-H1F6yaMIgc23bH9IPMPWjA,,,,space,1,0.3206,0,7,7,16,1,X,space,,,,,,,,,,,,,,
,,,,,,,,,,,,,,,WRO79,001,,2023-11-18_11h43.00.180,Trial go no go,2020.2.10,MacIntel,60,IwAR06J3gt4aEMWeBaiw-HHsmept4008tZVGqA-H1F6yaMIgc23bH9IPMPWjA,,,,space,1,0.318,0,8,8,7,1,X,space,,,,,,,,,,,,,,
,,,,,,,,,,,,,,,WRO79,001,,2023-11-18_11h43.00.180,Trial go no go,2020.2.10,MacIntel,60,IwAR06J3gt4aEMWeBaiw-HHsmept4008tZVGqA-H1F6yaMIgc23bH9IPMPWjA,,,,space,1,0.3163,0,9,9,21,1,X,space,,,,,,,,,,,,,,
,,,,,,,,,,,,,,,WRO79,001,,2023-11-18_11h43.00.180,Trial go no go,2020.2.10,MacIntel,60,IwAR06J3gt4aEMWeBaiw-HHsmept4008tZVGqA-H1F6yaMIgc23bH9IPMPWjA,,,,space,1,0.3047,0,10,10,26,1,X,space,,,,,,,,,,,,,,
,,,,,,,,,,,,,,,WRO79,001,,2023-11-18_11h43.00.180,Trial go no go,2020.2.10,MacIntel,60,IwAR06J3gt4aEMWeBaiw-HHsmept4008tZVGqA-H1F6yaMIgc23bH9IPMPWjA,,,,space,1,0.3025,0,11,11,30,1,X,space,,,,,,,,,,,,,,
,,,,,,,,,,,,,,,WRO79,001,,2023-11-18_11h43.00.180,Trial go no go,2020.2.10,MacIntel,60,IwAR06J3gt4aEMWeBaiw-HHsmept4008tZVGqA-H1F6yaMIgc23bH9IPMPWjA,,,,,1,,0,12,12,19,1,K,none,,,,,,,,,,,,,,
,,,,,,,,,,,,,,,WRO79,001,,2023-11-18_11h43.00.180,Trial go no go,2020.2.10,MacIntel,60,IwAR06J3gt4aEMWeBaiw-HHsmept4008tZVGqA-H1F6yaMIgc23bH9IPMPWjA,,,,space,1,0.3144,0,13,13,1,1,X,space,,,,,,,,,,,,,,
,,,,,,,,,,,,,,,WRO79,001,,2023-11-18_11h43.00.180,Trial go no go,2020.2.10,MacIntel,60,IwAR06J3gt4aEMWeBaiw-HHsmept4008tZVGqA-H1F6yaMIgc23bH9IPMPWjA,,,,space,1,0.3171,0,14,14,47,1,X,space,,,,,,,,,,,,,,
,,,,,,,,,,,,,,,WRO79,001,,2023-11-18_11h43.00.180,Trial go no go,2020.2.10,MacIntel,60,IwAR06J3gt4aEMWeBaiw-HHsmept4008tZVGqA-H1F6yaMIgc23bH9IPMPWjA,,,,space,1,0.3001,0,15,15,6,1,X,space,,,,,,,,,,,,,,
,,,,,,,,,,,,,,,WRO79,001,,2023-11-18_11h43.00.180,Trial go no go,2020.2.10,MacIntel,60,IwAR06J3gt4aEMWeBaiw-HHsmept4008tZVGqA-H1F6yaMIgc23bH9IPMPWjA,,,,space,1,0.3311,0,16,16,35,1,X,space,,,,,,,,,,,,,,
,,,,,,,,,,,,,,,WRO79,001,,2023-11-18_11h43.00.180,Trial go no go,2020.2.10,MacIntel,60,IwAR06J3gt4aEMWeBaiw-HHsmept4008tZVGqA-H1F6yaMIgc23bH9IPMPWjA,,,,space,0,0.2909,0,17,17,29,1,T,none,,,,,,,,,,,,,,
,,,,,,,,,,,,,,,WRO79,001,,2023-11-18_11h43.00.180,Trial go no go,2020.2.10,MacIntel,60,IwAR06J3gt4aEMWeBaiw-HHsmept4008tZVGqA-H1F6yaMIgc23bH9IPMPWjA,,,,,1,,0,18,18,44,1,F,none,,,,,,,,,,,,,,
,,,,,,,,,,,,,,,WRO79,001,,2023-11-18_11h43.00.180,Trial go no go,2020.2.10,MacIntel,60,IwAR06J3gt4aEMWeBaiw-HHsmept4008tZVGqA-H1F6yaMIgc23bH9IPMPWjA,,,,space,1,0.2694,0,19,19,22,1,X,space,,,,,,,,,,,,,,
,,,,,,,,,,,,,,,WRO79,001,,2023-11-18_11h43.00.180,Trial go no go,2020.2.10,MacIntel,60,IwAR06J3gt4aEMWeBaiw-HHsmept4008tZVGqA-H1F6yaMIgc23bH9IPMPWjA,,,,space,1,0.2665,0,20,20,17,1,X,space,,,,,,,,,,,,,,
,,,,,,,,,,,,,,,WRO79,001,,2023-11-18_11h43.00.180,Trial go no go,2020.2.10,MacIntel,60,IwAR06J3gt4aEMWeBaiw-HHsmept4008tZVGqA-H1F6yaMIgc23bH9IPMPWjA,,,,space,1,0.2882,0,21,21,15,1,X,space,,,,,,,,,,,,,,
,,,,,,,,,,,,,,,WRO79,001,,2023-11-18_11h43.00.180,Trial go no go,2020.2.10,MacIntel,60,IwAR06J3gt4aEMWeBaiw-HHsmept4008tZVGqA-H1F6yaMIgc23bH9IPMPWjA,,,,space,1,0.3165,0,22,22,8,1,X,space,,,,,,,,,,,,,,
,,,,,,,,,,,,,,,WRO79,001,,2023-11-18_11h43.00.180,Trial go no go,2020.2.10,MacIntel,60,IwAR06J3gt4aEMWeBaiw-HHsmept4008tZVGqA-H1F6yaMIgc23bH9IPMPWjA,,,,space,1,0.3346,0,23,23,31,1,X,space,,,,,,,,,,,,,,
,,,,,,,,,,,,,,,WRO79,001,,2023-11-18_11h43.00.180,Trial go no go,2020.2.10,MacIntel,60,IwAR06J3gt4aEMWeBaiw-HHsmept4008tZVGqA-H1F6yaMIgc23bH9IPMPWjA,,,,space,0,0.31,0,24,24,34,1,N,none,,,,,,,,,,,,,,
,,,,,,,,,,,,,,,WRO79,001,,2023-11-18_11h43.00.180,Trial go no go,2020.2.10,MacIntel,60,IwAR06J3gt4aEMWeBaiw-HHsmept4008tZVGqA-H1F6yaMIgc23bH9IPMPWjA,,,,space,1,0.3471,0,25,25,46,1,X,space,,,,,,,,,,,,,,
,,,,,,,,,,,,,,,WRO79,001,,2023-11-18_11h43.00.180,Trial go no go,2020.2.10,MacIntel,60,IwAR06J3gt4aEMWeBaiw-HHsmept4008tZVGqA-H1F6yaMIgc23bH9IPMPWjA,,,,space,1,0.3007,0,26,26,28,1,X,space,,,,,,,,,,,,,,
,,,,,,,,,,,,,,,WRO79,001,,2023-11-18_11h43.00.180,Trial go no go,2020.2.10,MacIntel,60,IwAR06J3gt4aEMWeBaiw-HHsmept4008tZVGqA-H1F6yaMIgc23bH9IPMPWjA,,,,,1,,0,27,27,39,1,M,none,,,,,,,,,,,,,,
,,,,,,,,,,,,,,,WRO79,001,,2023-11-18_11h43.00.180,Trial go no go,2020.2.10,MacIntel,60,IwAR06J3gt4aEMWeBaiw-HHsmept4008tZVGqA-H1F6yaMIgc23bH9IPMPWjA,,,,space,1,0.254,0,28,28,48,1,X,space,,,,,,,,,,,,,,
,,,,,,,,,,,,,,,WRO79,001,,2023-11-18_11h43.00.180,Trial go no go,2020.2.10,MacIntel,60,IwAR06J3gt4aEMWeBaiw-HHsmept4008tZVGqA-H1F6yaMIgc23bH9IPMPWjA,,,,space,0,0.2648,0,29,29,24,1,H,none,,,,,,,,,,,,,,
,,,,,,,,,,,,,,,WRO79,001,,2023-11-18_11h43.00.180,Trial go no go,2020.2.10,MacIntel,60,IwAR06J3gt4aEMWeBaiw-HHsmept4008tZVGqA-H1F6yaMIgc23bH9IPMPWjA,,,,,1,,0,30,30,49,1,E,none,,,,,,,,,,,,,,
,,,,,,,,,,,,,,,WRO79,001,,2023-11-18_11h43.00.180,Trial go no go,2020.2.10,MacIntel,60,IwAR06J3gt4aEMWeBaiw-HHsmept4008tZVGqA-H1F6yaMIgc23bH9IPMPWjA,,,,space,1,0.3289,0,31,31,41,1,X,space,,,,,,,,,,,,,,
,,,,,,,,,,,,,,,WRO79,001,,2023-11-18_11h43.00.180,Trial go no go,2020.2.10,MacIntel,60,IwAR06J3gt4aEMWeBaiw-HHsmept4008tZVGqA-H1F6yaMIgc23bH9IPMPWjA,,,,space,1,0.2863,0,32,32,12,1,X,space,,,,,,,,,,,,,,
,,,,,,,,,,,,,,,WRO79,001,,2023-11-18_11h43.00.180,Trial go no go,2020.2.10,MacIntel,60,IwAR06J3gt4aEMWeBaiw-HHsmept4008tZVGqA-H1F6yaMIgc23bH9IPMPWjA,,,,space,1,0.363,0,33,33,25,1,X,space,,,,,,,,,,,,,,
,,,,,,,,,,,,,,,WRO79,001,,2023-11-18_11h43.00.180,Trial go no go,2020.2.10,MacIntel,60,IwAR06J3gt4aEMWeBaiw-HHsmept4008tZVGqA-H1F6yaMIgc23bH9IPMPWjA,,,,space,1,0.3655,0,34,34,5,1,X,space,,,,,,,,,,,,,,
,,,,,,,,,,,,,,,WRO79,001,,2023-11-18_11h43.00.180,Trial go no go,2020.2.10,MacIntel,60,IwAR06J3gt4aEMWeBaiw-HHsmept4008tZVGqA-H1F6yaMIgc23bH9IPMPWjA,,,,space,1,0.3802,0,35,35,40,1,X,space,,,,,,,,,,,,,,
,,,,,,,,,,,,,,,WRO79,001,,2023-11-18_11h43.00.180,Trial go no go,2020.2.10,MacIntel,60,IwAR06J3gt4aEMWeBaiw-HHsmept4008tZVGqA-H1F6yaMIgc23bH9IPMPWjA,,,,space,1,0.4346,0,36,36,27,1,X,space,,,,,,,,,,,,,,
,,,,,,,,,,,,,,,WRO79,001,,2023-11-18_11h43.00.180,Trial go no go,2020.2.10,MacIntel,60,IwAR06J3gt4aEMWeBaiw-HHsmept4008tZVGqA-H1F6yaMIgc23bH9IPMPWjA,,,,space,1,0.3661,0,37,37,20,1,X,space,,,,,,,,,,,,,,
,,,,,,,,,,,,,,,WRO79,001,,2023-11-18_11h43.00.180,Trial go no go,2020.2.10,MacIntel,60,IwAR06J3gt4aEMWeBaiw-HHsmept4008tZVGqA-H1F6yaMIgc23bH9IPMPWjA,,,,space,1,0.3495,0,38,38,32,1,X,space,,,,,,,,,,,,,,
,,,,,,,,,,,,,,,WRO79,001,,2023-11-18_11h43.00.180,Trial go no go,2020.2.10,MacIntel,60,IwAR06J3gt4aEMWeBaiw-HHsmept4008tZVGqA-H1F6yaMIgc23bH9IPMPWjA,,,,space,1,0.3337,0,39,39,18,1,X,space,,,,,,,,,,,,,,
,,,,,,,,,,,,,,,WRO79,001,,2023-11-18_11h43.00.180,Trial go no go,2020.2.10,MacIntel,60,IwAR06J3gt4aEMWeBaiw-HHsmept4008tZVGqA-H1F6yaMIgc23bH9IPMPWjA,,,,space,1,0.474,0,40,40,23,1,X,space,,,,,,,,,,,,,,
,,,,,,,,,,,,,,,WRO79,001,,2023-11-18_11h43.00.180,Trial go no go,2020.2.10,MacIntel,60,IwAR06J3gt4aEMWeBaiw-HHsmept4008tZVGqA-H1F6yaMIgc23bH9IPMPWjA,,,,space,1,0.4699,0,41,41,43,1,X,space,,,,,,,,,,,,,,
,,,,,,,,,,,,,,,WRO79,001,,2023-11-18_11h43.00.180,Trial go no go,2020.2.10,MacIntel,60,IwAR06J3gt4aEMWeBaiw-HHsmept4008tZVGqA-H1F6yaMIgc23bH9IPMPWjA,,,,space,1,0.3345,0,42,42,37,1,X,space,,,,,,,,,,,,,,
,,,,,,,,,,,,,,,WRO79,001,,2023-11-18_11h43.00.180,Trial go no go,2020.2.10,MacIntel,60,IwAR06J3gt4aEMWeBaiw-HHsmept4008tZVGqA-H1F6yaMIgc23bH9IPMPWjA,,,,space,1,0.2882,0,43,43,10,1,X,space,,,,,,,,,,,,,,
,,,,,,,,,,,,,,,WRO79,001,,2023-11-18_11h43.00.180,Trial go no go,2020.2.10,MacIntel,60,IwAR06J3gt4aEMWeBaiw-HHsmept4008tZVGqA-H1F6yaMIgc23bH9IPMPWjA,,,,space,1,0.287,0,44,44,3,1,X,space,,,,,,,,,,,,,,
,,,,,,,,,,,,,,,WRO79,001,,2023-11-18_11h43.00.180,Trial go no go,2020.2.10,MacIntel,60,IwAR06J3gt4aEMWeBaiw-HHsmept4008tZVGqA-H1F6yaMIgc23bH9IPMPWjA,,,,space,1,0.3563,0,45,45,11,1,X,space,,,,,,,,,,,,,,
,,,,,,,,,,,,,,,WRO79,001,,2023-11-18_11h43.00.180,Trial go no go,2020.2.10,MacIntel,60,IwAR06J3gt4aEMWeBaiw-HHsmept4008tZVGqA-H1F6yaMIgc23bH9IPMPWjA,,,,space,1,0.3155,0,46,46,2,1,X,space,,,,,,,,,,,,,,
,,,,,,,,,,,,,,,WRO79,001,,2023-11-18_11h43.00.180,Trial go no go,2020.2.10,MacIntel,60,IwAR06J3gt4aEMWeBaiw-HHsmept4008tZVGqA-H1F6yaMIgc23bH9IPMPWjA,,,,,1,,0,47,47,4,1,V,none,,,,,,,,,,,,,,
,,,,,,,,,,,,,,,WRO79,001,,2023-11-18_11h43.00.180,Trial go no go,2020.2.10,MacIntel,60,IwAR06J3gt4aEMWeBaiw-HHsmept4008tZVGqA-H1F6yaMIgc23bH9IPMPWjA,,,,space,0,0.2664,0,48,48,9,1,W,none,,,,,,,,,,,,,,
,,,,,,,,,,,,,,,WRO79,001,,2023-11-18_11h43.00.180,Trial go no go,2020.2.10,MacIntel,60,IwAR06J3gt4aEMWeBaiw-HHsmept4008tZVGqA-H1F6yaMIgc23bH9IPMPWjA,,,,space,1,0.3141,0,49,49,45,1,X,space,,,,,,,,,,,,,,
,,,,,,,,,,,,,,,WRO79,001,,2023-11-18_11h43.00.180,Trial go no go,2020.2.10,MacIntel,60,IwAR06J3gt4aEMWeBaiw-HHsmept4008tZVGqA-H1F6yaMIgc23bH9IPMPWjA,,,,,,,,,,,,,,z,13.1334,,0,0,0,0,47,1,H,space,,,
,,,,,,,,,,,,,,,WRO79,001,,2023-11-18_11h43.00.180,Trial go no go,2020.2.10,MacIntel,60,IwAR06J3gt4aEMWeBaiw-HHsmept4008tZVGqA-H1F6yaMIgc23bH9IPMPWjA,,,,,,,,,,,,,,,,space,1,0,1,1,5,1,Y,space,0.3805,,
,,,,,,,,,,,,,,,WRO79,001,,2023-11-18_11h43.00.180,Trial go no go,2020.2.10,MacIntel,60,IwAR06J3gt4aEMWeBaiw-HHsmept4008tZVGqA-H1F6yaMIgc23bH9IPMPWjA,,,,,,,,,,,,,,,,,1,0,2,2,29,1,X,none,,,
,,,,,,,,,,,,,,,WRO79,001,,2023-11-18_11h43.00.180,Trial go no go,2020.2.10,MacIntel,60,IwAR06J3gt4aEMWeBaiw-HHsmept4008tZVGqA-H1F6yaMIgc23bH9IPMPWjA,,,,,,,,,,,,,,,,space,1,0,3,3,36,1,M,space,0.3989,,
,,,,,,,,,,,,,,,WRO79,001,,2023-11-18_11h43.00.180,Trial go no go,2020.2.10,MacIntel,60,IwAR06J3gt4aEMWeBaiw-HHsmept4008tZVGqA-H1F6yaMIgc23bH9IPMPWjA,,,,,,,,,,,,,,,,,1,0,4,4,34,1,X,none,,,
,,,,,,,,,,,,,,,WRO79,001,,2023-11-18_11h43.00.180,Trial go no go,2020.2.10,MacIntel,60,IwAR06J3gt4aEMWeBaiw-HHsmept4008tZVGqA-H1F6yaMIgc23bH9IPMPWjA,,,,,,,,,,,,,,,,space,1,0,5,5,40,1,R,space,0.3445,,
,,,,,,,,,,,,,,,WRO79,001,,2023-11-18_11h43.00.180,Trial go no go,2020.2.10,MacIntel,60,IwAR06J3gt4aEMWeBaiw-HHsmept4008tZVGqA-H1F6yaMIgc23bH9IPMPWjA,,,,,,,,,,,,,,,,,1,0,6,6,19,1,X,none,,,
,,,,,,,,,,,,,,,WRO79,001,,2023-11-18_11h43.00.180,Trial go no go,2020.2.10,MacIntel,60,IwAR06J3gt4aEMWeBaiw-HHsmept4008tZVGqA-H1F6yaMIgc23bH9IPMPWjA,,,,,,,,,,,,,,,,space,1,0,7,7,3,1,T,space,0.3279,,
,,,,,,,,,,,,,,,WRO79,001,,2023-11-18_11h43.00.180,Trial go no go,2020.2.10,MacIntel,60,IwAR06J3gt4aEMWeBaiw-HHsmept4008tZVGqA-H1F6yaMIgc23bH9IPMPWjA,,,,,,,,,,,,,,,,space,1,0,8,8,18,1,W,space,0.4482,,
,,,,,,,,,,,,,,,WRO79,001,,2023-11-18_11h43.00.180,Trial go no go,2020.2.10,MacIntel,60,IwAR06J3gt4aEMWeBaiw-HHsmept4008tZVGqA-H1F6yaMIgc23bH9IPMPWjA,,,,,,,,,,,,,,,,space,1,0,9,9,22,1,T,space,0.333,,
,,,,,,,,,,,,,,,WRO79,001,,2023-11-18_11h43.00.180,Trial go no go,2020.2.10,MacIntel,60,IwAR06J3gt4aEMWeBaiw-HHsmept4008tZVGqA-H1F6yaMIgc23bH9IPMPWjA,,,,,,,,,,,,,,,,space,1,0,10,10,23,1,Y,space,0.3487,,
,,,,,,,,,,,,,,,WRO79,001,,2023-11-18_11h43.00.180,Trial go no go,2020.2.10,MacIntel,60,IwAR06J3gt4aEMWeBaiw-HHsmept4008tZVGqA-H1F6yaMIgc23bH9IPMPWjA,,,,,,,,,,,,,,,,space,1,0,11,11,11,1,K,space,0.3483,,
,,,,,,,,,,,,,,,WRO79,001,,2023-11-18_11h43.00.180,Trial go no go,2020.2.10,MacIntel,60,IwAR06J3gt4aEMWeBaiw-HHsmept4008tZVGqA-H1F6yaMIgc23bH9IPMPWjA,,,,,,,,,,,,,,,,space,1,0,12,12,0,1,W,space,0.3841,,
,,,,,,,,,,,,,,,WRO79,001,,2023-11-18_11h43.00.180,Trial go no go,2020.2.10,MacIntel,60,IwAR06J3gt4aEMWeBaiw-HHsmept4008tZVGqA-H1F6yaMIgc23bH9IPMPWjA,,,,,,,,,,,,,,,,space,1,0,13,13,42,1,Y,space,0.331,,
,,,,,,,,,,,,,,,WRO79,001,,2023-11-18_11h43.00.180,Trial go no go,2020.2.10,MacIntel,60,IwAR06J3gt4aEMWeBaiw-HHsmept4008tZVGqA-H1F6yaMIgc23bH9IPMPWjA,,,,,,,,,,,,,,,,space,1,0,14,14,25,1,I,space,0.3978,,
,,,,,,,,,,,,,,,WRO79,001,,2023-11-18_11h43.00.180,Trial go no go,2020.2.10,MacIntel,60,IwAR06J3gt4aEMWeBaiw-HHsmept4008tZVGqA-H1F6yaMIgc23bH9IPMPWjA,,,,,,,,,,,,,,,,space,1,0,15,15,32,1,Z,space,0.3182,,
,,,,,,,,,,,,,,,WRO79,001,,2023-11-18_11h43.00.180,Trial go no go,2020.2.10,MacIntel,60,IwAR06J3gt4aEMWeBaiw-HHsmept4008tZVGqA-H1F6yaMIgc23bH9IPMPWjA,,,,,,,,,,,,,,,,space,1,0,16,16,1,1,E,space,0.3816,,
,,,,,,,,,,,,,,,WRO79,001,,2023-11-18_11h43.00.180,Trial go no go,2020.2.10,MacIntel,60,IwAR06J3gt4aEMWeBaiw-HHsmept4008tZVGqA-H1F6yaMIgc23bH9IPMPWjA,,,,,,,,,,,,,,,,space,1,0,17,17,33,1,V,space,0.3282,,
,,,,,,,,,,,,,,,WRO79,001,,2023-11-18_11h43.00.180,Trial go no go,2020.2.10,MacIntel,60,IwAR06J3gt4aEMWeBaiw-HHsmept4008tZVGqA-H1F6yaMIgc23bH9IPMPWjA,,,,,,,,,,,,,,,,space,1,0,18,18,30,1,K,space,0.348,,
,,,,,,,,,,,,,,,WRO79,001,,2023-11-18_11h43.00.180,Trial go no go,2020.2.10,MacIntel,60,IwAR06J3gt4aEMWeBaiw-HHsmept4008tZVGqA-H1F6yaMIgc23bH9IPMPWjA,,,,,,,,,,,,,,,,space,1,0,19,19,46,1,F,space,0.317,,
,,,,,,,,,,,,,,,WRO79,001,,2023-11-18_11h43.00.180,Trial go no go,2020.2.10,MacIntel,60,IwAR06J3gt4aEMWeBaiw-HHsmept4008tZVGqA-H1F6yaMIgc23bH9IPMPWjA,,,,,,,,,,,,,,,,space,1,0,20,20,8,1,F,space,0.317,,
,,,,,,,,,,,,,,,WRO79,001,,2023-11-18_11h43.00.180,Trial go no go,2020.2.10,MacIntel,60,IwAR06J3gt4aEMWeBaiw-HHsmept4008tZVGqA-H1F6yaMIgc23bH9IPMPWjA,,,,,,,,,,,,,,,,space,1,0,21,21,12,1,L,space,0.3441,,
,,,,,,,,,,,,,,,WRO79,001,,2023-11-18_11h43.00.180,Trial go no go,2020.2.10,MacIntel,60,IwAR06J3gt4aEMWeBaiw-HHsmept4008tZVGqA-H1F6yaMIgc23bH9IPMPWjA,,,,,,,,,,,,,,,,space,1,0,22,22,2,1,R,space,0.3143,,
,,,,,,,,,,,,,,,WRO79,001,,2023-11-18_11h43.00.180,Trial go no go,2020.2.10,MacIntel,60,IwAR06J3gt4aEMWeBaiw-HHsmept4008tZVGqA-H1F6yaMIgc23bH9IPMPWjA,,,,,,,,,,,,,,,,space,1,0,23,23,35,1,N,space,0.3857,,
,,,,,,,,,,,,,,,WRO79,001,,2023-11-18_11h43.00.180,Trial go no go,2020.2.10,MacIntel,60,IwAR06J3gt4aEMWeBaiw-HHsmept4008tZVGqA-H1F6yaMIgc23bH9IPMPWjA,,,,,,,,,,,,,,,,space,1,0,24,24,37,1,W,space,0.4185,,
,,,,,,,,,,,,,,,WRO79,001,,2023-11-18_11h43.00.180,Trial go no go,2020.2.10,MacIntel,60,IwAR06J3gt4aEMWeBaiw-HHsmept4008tZVGqA-H1F6yaMIgc23bH9IPMPWjA,,,,,,,,,,,,,,,,space,1,0,25,25,26,1,A,space,0.3039,,
,,,,,,,,,,,,,,,WRO79,001,,2023-11-18_11h43.00.180,Trial go no go,2020.2.10,MacIntel,60,IwAR06J3gt4aEMWeBaiw-HHsmept4008tZVGqA-H1F6yaMIgc23bH9IPMPWjA,,,,,,,,,,,,,,,,,1,0,26,26,14,1,X,none,,,
,,,,,,,,,,,,,,,WRO79,001,,2023-11-18_11h43.00.180,Trial go no go,2020.2.10,MacIntel,60,IwAR06J3gt4aEMWeBaiw-HHsmept4008tZVGqA-H1F6yaMIgc23bH9IPMPWjA,,,,,,,,,,,,,,,,,1,0,27,27,49,1,X,none,,,
,,,,,,,,,,,,,,,WRO79,001,,2023-11-18_11h43.00.180,Trial go no go,2020.2.10,MacIntel,60,IwAR06J3gt4aEMWeBaiw-HHsmept4008tZVGqA-H1F6yaMIgc23bH9IPMPWjA,,,,,,,,,,,,,,,,space,1,0,28,28,15,1,V,space,0.3874,,
,,,,,,,,,,,,,,,WRO79,001,,2023-11-18_11h43.00.180,Trial go no go,2020.2.10,MacIntel,60,IwAR06J3gt4aEMWeBaiw-HHsmept4008tZVGqA-H1F6yaMIgc23bH9IPMPWjA,,,,,,,,,,,,,,,,space,0,0,29,29,24,1,X,none,0.3336,,
,,,,,,,,,,,,,,,WRO79,001,,2023-11-18_11h43.00.180,Trial go no go,2020.2.10,MacIntel,60,IwAR06J3gt4aEMWeBaiw-HHsmept4008tZVGqA-H1F6yaMIgc23bH9IPMPWjA,,,,,,,,,,,,,,,,,1,0,30,30,39,1,X,none,,,
,,,,,,,,,,,,,,,WRO79,001,,2023-11-18_11h43.00.180,Trial go no go,2020.2.10,MacIntel,60,IwAR06J3gt4aEMWeBaiw-HHsmept4008tZVGqA-H1F6yaMIgc23bH9IPMPWjA,,,,,,,,,,,,,,,,,1,0,31,31,4,1,X,none,,,
,,,,,,,,,,,,,,,WRO79,001,,2023-11-18_11h43.00.180,Trial go no go,2020.2.10,MacIntel,60,IwAR06J3gt4aEMWeBaiw-HHsmept4008tZVGqA-H1F6yaMIgc23bH9IPMPWjA,,,,,,,,,,,,,,,,space,1,0,32,32,16,1,N,space,0.3783,,
,,,,,,,,,,,,,,,WRO79,001,,2023-11-18_11h43.00.180,Trial go no go,2020.2.10,MacIntel,60,IwAR06J3gt4aEMWeBaiw-HHsmept4008tZVGqA-H1F6yaMIgc23bH9IPMPWjA,,,,,,,,,,,,,,,,space,1,0,33,33,38,1,E,space,0.3143,,
,,,,,,,,,,,,,,,WRO79,001,,2023-11-18_11h43.00.180,Trial go no go,2020.2.10,MacIntel,60,IwAR06J3gt4aEMWeBaiw-HHsmept4008tZVGqA-H1F6yaMIgc23bH9IPMPWjA,,,,,,,,,,,,,,,,space,1,0,34,34,13,1,Z,space,0.3133,,
,,,,,,,,,,,,,,,WRO79,001,,2023-11-18_11h43.00.180,Trial go no go,2020.2.10,MacIntel,60,IwAR06J3gt4aEMWeBaiw-HHsmept4008tZVGqA-H1F6yaMIgc23bH9IPMPWjA,,,,,,,,,,,,,,,,space,1,0,35,35,43,1,I,space,0.3306,,
,,,,,,,,,,,,,,,WRO79,001,,2023-11-18_11h43.00.180,Trial go no go,2020.2.10,MacIntel,60,IwAR06J3gt4aEMWeBaiw-HHsmept4008tZVGqA-H1F6yaMIgc23bH9IPMPWjA,,,,,,,,,,,,,,,,space,1,0,36,36,10,1,H,space,0.3324,,
,,,,,,,,,,,,,,,WRO79,001,,2023-11-18_11h43.00.180,Trial go no go,2020.2.10,MacIntel,60,IwAR06J3gt4aEMWeBaiw-HHsmept4008tZVGqA-H1F6yaMIgc23bH9IPMPWjA,,,,,,,,,,,,,,,,space,1,0,37,37,17,1,M,space,0.3316,,
,,,,,,,,,,,,,,,WRO79,001,,2023-11-18_11h43.00.180,Trial go no go,2020.2.10,MacIntel,60,IwAR06J3gt4aEMWeBaiw-HHsmept4008tZVGqA-H1F6yaMIgc23bH9IPMPWjA,,,,,,,,,,,,,,,,space,1,0,38,38,41,1,T,space,0.3179,,
,,,,,,,,,,,,,,,WRO79,001,,2023-11-18_11h43.00.180,Trial go no go,2020.2.10,MacIntel,60,IwAR06J3gt4aEMWeBaiw-HHsmept4008tZVGqA-H1F6yaMIgc23bH9IPMPWjA,,,,,,,,,,,,,,,,space,1,0,39,39,45,1,A,space,0.2791,,
,,,,,,,,,,,,,,,WRO79,001,,2023-11-18_11h43.00.180,Trial go no go,2020.2.10,MacIntel,60,IwAR06J3gt4aEMWeBaiw-HHsmept4008tZVGqA-H1F6yaMIgc23bH9IPMPWjA,,,,,,,,,,,,,,,,space,1,0,40,40,7,1,A,space,0.2831,,
,,,,,,,,,,,,,,,WRO79,001,,2023-11-18_11h43.00.180,Trial go no go,2020.2.10,MacIntel,60,IwAR06J3gt4aEMWeBaiw-HHsmept4008tZVGqA-H1F6yaMIgc23bH9IPMPWjA,,,,,,,,,,,,,,,,space,1,0,41,41,48,1,K,space,0.402,,
,,,,,,,,,,,,,,,WRO79,001,,2023-11-18_11h43.00.180,Trial go no go,2020.2.10,MacIntel,60,IwAR06J3gt4aEMWeBaiw-HHsmept4008tZVGqA-H1F6yaMIgc23bH9IPMPWjA,,,,,,,,,,,,,,,,space,1,0,42,42,21,1,R,space,0.3,,
,,,,,,,,,,,,,,,WRO79,001,,2023-11-18_11h43.00.180,Trial go no go,2020.2.10,MacIntel,60,IwAR06J3gt4aEMWeBaiw-HHsmept4008tZVGqA-H1F6yaMIgc23bH9IPMPWjA,,,,,,,,,,,,,,,,space,1,0,43,43,6,1,I,space,0.3274,,
,,,,,,,,,,,,,,,WRO79,001,,2023-11-18_11h43.00.180,Trial go no go,2020.2.10,MacIntel,60,IwAR06J3gt4aEMWeBaiw-HHsmept4008tZVGqA-H1F6yaMIgc23bH9IPMPWjA,,,,,,,,,,,,,,,,space,1,0,44,44,20,1,E,space,0.2888,,
,,,,,,,,,,,,,,,WRO79,001,,2023-11-18_11h43.00.180,Trial go no go,2020.2.10,MacIntel,60,IwAR06J3gt4aEMWeBaiw-HHsmept4008tZVGqA-H1F6yaMIgc23bH9IPMPWjA,,,,,,,,,,,,,,,,space,0,0,45,45,9,1,X,none,0.2869,,
,,,,,,,,,,,,,,,WRO79,001,,2023-11-18_11h43.00.180,Trial go no go,2020.2.10,MacIntel,60,IwAR06J3gt4aEMWeBaiw-HHsmept4008tZVGqA-H1F6yaMIgc23bH9IPMPWjA,,,,,,,,,,,,,,,,space,1,0,46,46,31,1,L,space,0.3165,,
,,,,,,,,,,,,,,,WRO79,001,,2023-11-18_11h43.00.180,Trial go no go,2020.2.10,MacIntel,60,IwAR06J3gt4aEMWeBaiw-HHsmept4008tZVGqA-H1F6yaMIgc23bH9IPMPWjA,,,,,,,,,,,,,,,,,1,0,47,47,44,1,X,none,,,
,,,,,,,,,,,,,,,WRO79,001,,2023-11-18_11h43.00.180,Trial go no go,2020.2.10,MacIntel,60,IwAR06J3gt4aEMWeBaiw-HHsmept4008tZVGqA-H1F6yaMIgc23bH9IPMPWjA,,,,,,,,,,,,,,,,space,1,0,48,48,27,1,F,space,0.3461,,
,,,,,,,,,,,,,,,WRO79,001,,2023-11-18_11h43.00.180,Trial go no go,2020.2.10,MacIntel,60,IwAR06J3gt4aEMWeBaiw-HHsmept4008tZVGqA-H1F6yaMIgc23bH9IPMPWjA,,,,,,,,,,,,,,,,space,1,0,49,49,28,1,H,space,0.3624,,
,,,,,,,,,,,,,,,WRO79,001,,2023-11-18_11h43.00.180,Trial go no go,2020.2.10,MacIntel,60,IwAR06J3gt4aEMWeBaiw-HHsmept4008tZVGqA-H1F6yaMIgc23bH9IPMPWjA,,,,,,,,,,,,,,,,,,,,,,,,,,space,3.5225
