resp_Welcome.keys,resp_Welcome.rt,resp_Instr_Intro.keys,resp_Instr_Intro.rt,resp_Instr_Prac1.keys,resp_Instr_Prac1.rt,resp_trial_Prac1.keys,resp_trial_Prac1.corr,resp_trial_Prac1.rt,prac_trials.thisRepN,prac_trials.thisTrialN,prac_trials.thisN,prac_trials.thisIndex,prac_trials.ran,stimulus_prac1,corrAns_prac1,participant,session,indywidualny kod,date,expName,psychopyVersion,OS,frameRate,fbclid,resp_Instr_Test1.keys,resp_Instr_Test1.rt,resp_trial_Test1.keys,resp_trial_Test1.corr,resp_trial_Test1.rt,test1trial.thisRepN,test1trial.thisTrialN,test1trial.thisN,test1trial.thisIndex,test1trial.ran,stimulus_test1,corrAns_test1,resp_Instr_Test2.keys,resp_Instr_Test2.rt,key_resp_Test2.keys,key_resp_Test2.corr,test2trial.thisRepN,test2trial.thisTrialN,test2trial.thisN,test2trial.thisIndex,test2trial.ran,stimulus_test2,corrAns_test2,key_resp_Test2.rt,resp_theEnd.keys,resp_theEnd.rt
space,13.6033,space,34.0877,space,22.7178,space,1,0.8264,0,0,0,11,1,X,space,wro80,001,,2023-11-23_07h20.57.420,Trial go no go,2020.2.10,MacIntel,60,IwAR1fS3tZKA3RwtQe1FlqkxzekCK1L3gK-PC1s8LAXsxo2q95rTWDveSV9NE,,,,,,,,,,,,,,,,,,,,,,,,,,
,,,,,,,1,,0,1,1,9,1,V,none,wro80,001,,2023-11-23_07h20.57.420,Trial go no go,2020.2.10,MacIntel,60,IwAR1fS3tZKA3RwtQe1FlqkxzekCK1L3gK-PC1s8LAXsxo2q95rTWDveSV9NE,,,,,,,,,,,,,,,,,,,,,,,,,,
,,,,,,space,1,0.7135,0,2,2,8,1,X,space,wro80,001,,2023-11-23_07h20.57.420,Trial go no go,2020.2.10,MacIntel,60,IwAR1fS3tZKA3RwtQe1FlqkxzekCK1L3gK-PC1s8LAXsxo2q95rTWDveSV9NE,,,,,,,,,,,,,,,,,,,,,,,,,,
,,,,,,space,1,1.0864,0,3,3,7,1,X,space,wro80,001,,2023-11-23_07h20.57.420,Trial go no go,2020.2.10,MacIntel,60,IwAR1fS3tZKA3RwtQe1FlqkxzekCK1L3gK-PC1s8LAXsxo2q95rTWDveSV9NE,,,,,,,,,,,,,,,,,,,,,,,,,,
,,,,,,,1,,0,4,4,14,1,K,none,wro80,001,,2023-11-23_07h20.57.420,Trial go no go,2020.2.10,MacIntel,60,IwAR1fS3tZKA3RwtQe1FlqkxzekCK1L3gK-PC1s8LAXsxo2q95rTWDveSV9NE,,,,,,,,,,,,,,,,,,,,,,,,,,
,,,,,,space,1,0.4964,0,5,5,12,1,X,space,wro80,001,,2023-11-23_07h20.57.420,Trial go no go,2020.2.10,MacIntel,60,IwAR1fS3tZKA3RwtQe1FlqkxzekCK1L3gK-PC1s8LAXsxo2q95rTWDveSV9NE,,,,,,,,,,,,,,,,,,,,,,,,,,
,,,,,,,1,,0,6,6,4,1,W,none,wro80,001,,2023-11-23_07h20.57.420,Trial go no go,2020.2.10,MacIntel,60,IwAR1fS3tZKA3RwtQe1FlqkxzekCK1L3gK-PC1s8LAXsxo2q95rTWDveSV9NE,,,,,,,,,,,,,,,,,,,,,,,,,,
,,,,,,space,1,0.6137,0,7,7,13,1,X,space,wro80,001,,2023-11-23_07h20.57.420,Trial go no go,2020.2.10,MacIntel,60,IwAR1fS3tZKA3RwtQe1FlqkxzekCK1L3gK-PC1s8LAXsxo2q95rTWDveSV9NE,,,,,,,,,,,,,,,,,,,,,,,,,,
,,,,,,space,1,0.5155,0,8,8,6,1,X,space,wro80,001,,2023-11-23_07h20.57.420,Trial go no go,2020.2.10,MacIntel,60,IwAR1fS3tZKA3RwtQe1FlqkxzekCK1L3gK-PC1s8LAXsxo2q95rTWDveSV9NE,,,,,,,,,,,,,,,,,,,,,,,,,,
,,,,,,space,1,0.4576,0,9,9,10,1,X,space,wro80,001,,2023-11-23_07h20.57.420,Trial go no go,2020.2.10,MacIntel,60,IwAR1fS3tZKA3RwtQe1FlqkxzekCK1L3gK-PC1s8LAXsxo2q95rTWDveSV9NE,,,,,,,,,,,,,,,,,,,,,,,,,,
,,,,,,space,1,0.434,0,10,10,2,1,X,space,wro80,001,,2023-11-23_07h20.57.420,Trial go no go,2020.2.10,MacIntel,60,IwAR1fS3tZKA3RwtQe1FlqkxzekCK1L3gK-PC1s8LAXsxo2q95rTWDveSV9NE,,,,,,,,,,,,,,,,,,,,,,,,,,
,,,,,,space,1,0.5151,0,11,11,1,1,X,space,wro80,001,,2023-11-23_07h20.57.420,Trial go no go,2020.2.10,MacIntel,60,IwAR1fS3tZKA3RwtQe1FlqkxzekCK1L3gK-PC1s8LAXsxo2q95rTWDveSV9NE,,,,,,,,,,,,,,,,,,,,,,,,,,
,,,,,,space,1,0.4153,0,12,12,0,1,X,space,wro80,001,,2023-11-23_07h20.57.420,Trial go no go,2020.2.10,MacIntel,60,IwAR1fS3tZKA3RwtQe1FlqkxzekCK1L3gK-PC1s8LAXsxo2q95rTWDveSV9NE,,,,,,,,,,,,,,,,,,,,,,,,,,
,,,,,,space,1,0.4495,0,13,13,5,1,X,space,wro80,001,,2023-11-23_07h20.57.420,Trial go no go,2020.2.10,MacIntel,60,IwAR1fS3tZKA3RwtQe1FlqkxzekCK1L3gK-PC1s8LAXsxo2q95rTWDveSV9NE,,,,,,,,,,,,,,,,,,,,,,,,,,
,,,,,,space,1,0.4222,0,14,14,3,1,X,space,wro80,001,,2023-11-23_07h20.57.420,Trial go no go,2020.2.10,MacIntel,60,IwAR1fS3tZKA3RwtQe1FlqkxzekCK1L3gK-PC1s8LAXsxo2q95rTWDveSV9NE,,,,,,,,,,,,,,,,,,,,,,,,,,
,,,,,,,,,,,,,,,,wro80,001,,2023-11-23_07h20.57.420,Trial go no go,2020.2.10,MacIntel,60,IwAR1fS3tZKA3RwtQe1FlqkxzekCK1L3gK-PC1s8LAXsxo2q95rTWDveSV9NE,space,17.3725,space,1,0.6022,0,0,0,48,1,X,space,,,,,,,,,,,,,,
,,,,,,,,,,,,,,,,wro80,001,,2023-11-23_07h20.57.420,Trial go no go,2020.2.10,MacIntel,60,IwAR1fS3tZKA3RwtQe1FlqkxzekCK1L3gK-PC1s8LAXsxo2q95rTWDveSV9NE,,,space,1,0.3534,0,1,1,27,1,X,space,,,,,,,,,,,,,,
,,,,,,,,,,,,,,,,wro80,001,,2023-11-23_07h20.57.420,Trial go no go,2020.2.10,MacIntel,60,IwAR1fS3tZKA3RwtQe1FlqkxzekCK1L3gK-PC1s8LAXsxo2q95rTWDveSV9NE,,,space,0,0.3104,0,2,2,39,1,M,none,,,,,,,,,,,,,,
,,,,,,,,,,,,,,,,wro80,001,,2023-11-23_07h20.57.420,Trial go no go,2020.2.10,MacIntel,60,IwAR1fS3tZKA3RwtQe1FlqkxzekCK1L3gK-PC1s8LAXsxo2q95rTWDveSV9NE,,,,1,,0,3,3,4,1,V,none,,,,,,,,,,,,,,
,,,,,,,,,,,,,,,,wro80,001,,2023-11-23_07h20.57.420,Trial go no go,2020.2.10,MacIntel,60,IwAR1fS3tZKA3RwtQe1FlqkxzekCK1L3gK-PC1s8LAXsxo2q95rTWDveSV9NE,,,,1,,0,4,4,29,1,T,none,,,,,,,,,,,,,,
,,,,,,,,,,,,,,,,wro80,001,,2023-11-23_07h20.57.420,Trial go no go,2020.2.10,MacIntel,60,IwAR1fS3tZKA3RwtQe1FlqkxzekCK1L3gK-PC1s8LAXsxo2q95rTWDveSV9NE,,,space,1,0.3667,0,5,5,10,1,X,space,,,,,,,,,,,,,,
,,,,,,,,,,,,,,,,wro80,001,,2023-11-23_07h20.57.420,Trial go no go,2020.2.10,MacIntel,60,IwAR1fS3tZKA3RwtQe1FlqkxzekCK1L3gK-PC1s8LAXsxo2q95rTWDveSV9NE,,,space,1,0.4513,0,6,6,11,1,X,space,,,,,,,,,,,,,,
,,,,,,,,,,,,,,,,wro80,001,,2023-11-23_07h20.57.420,Trial go no go,2020.2.10,MacIntel,60,IwAR1fS3tZKA3RwtQe1FlqkxzekCK1L3gK-PC1s8LAXsxo2q95rTWDveSV9NE,,,space,1,0.3329,0,7,7,40,1,X,space,,,,,,,,,,,,,,
,,,,,,,,,,,,,,,,wro80,001,,2023-11-23_07h20.57.420,Trial go no go,2020.2.10,MacIntel,60,IwAR1fS3tZKA3RwtQe1FlqkxzekCK1L3gK-PC1s8LAXsxo2q95rTWDveSV9NE,,,space,1,0.3504,0,8,8,43,1,X,space,,,,,,,,,,,,,,
,,,,,,,,,,,,,,,,wro80,001,,2023-11-23_07h20.57.420,Trial go no go,2020.2.10,MacIntel,60,IwAR1fS3tZKA3RwtQe1FlqkxzekCK1L3gK-PC1s8LAXsxo2q95rTWDveSV9NE,,,space,0,0.2964,0,9,9,14,1,Y,none,,,,,,,,,,,,,,
,,,,,,,,,,,,,,,,wro80,001,,2023-11-23_07h20.57.420,Trial go no go,2020.2.10,MacIntel,60,IwAR1fS3tZKA3RwtQe1FlqkxzekCK1L3gK-PC1s8LAXsxo2q95rTWDveSV9NE,,,space,1,0.3658,0,10,10,16,1,X,space,,,,,,,,,,,,,,
,,,,,,,,,,,,,,,,wro80,001,,2023-11-23_07h20.57.420,Trial go no go,2020.2.10,MacIntel,60,IwAR1fS3tZKA3RwtQe1FlqkxzekCK1L3gK-PC1s8LAXsxo2q95rTWDveSV9NE,,,,1,,0,11,11,34,1,N,none,,,,,,,,,,,,,,
,,,,,,,,,,,,,,,,wro80,001,,2023-11-23_07h20.57.420,Trial go no go,2020.2.10,MacIntel,60,IwAR1fS3tZKA3RwtQe1FlqkxzekCK1L3gK-PC1s8LAXsxo2q95rTWDveSV9NE,,,space,1,0.419,0,12,12,7,1,X,space,,,,,,,,,,,,,,
,,,,,,,,,,,,,,,,wro80,001,,2023-11-23_07h20.57.420,Trial go no go,2020.2.10,MacIntel,60,IwAR1fS3tZKA3RwtQe1FlqkxzekCK1L3gK-PC1s8LAXsxo2q95rTWDveSV9NE,,,space,1,0.4687,0,13,13,21,1,X,space,,,,,,,,,,,,,,
,,,,,,,,,,,,,,,,wro80,001,,2023-11-23_07h20.57.420,Trial go no go,2020.2.10,MacIntel,60,IwAR1fS3tZKA3RwtQe1FlqkxzekCK1L3gK-PC1s8LAXsxo2q95rTWDveSV9NE,,,space,1,0.3197,0,14,14,5,1,X,space,,,,,,,,,,,,,,
,,,,,,,,,,,,,,,,wro80,001,,2023-11-23_07h20.57.420,Trial go no go,2020.2.10,MacIntel,60,IwAR1fS3tZKA3RwtQe1FlqkxzekCK1L3gK-PC1s8LAXsxo2q95rTWDveSV9NE,,,space,1,0.3318,0,15,15,41,1,X,space,,,,,,,,,,,,,,
,,,,,,,,,,,,,,,,wro80,001,,2023-11-23_07h20.57.420,Trial go no go,2020.2.10,MacIntel,60,IwAR1fS3tZKA3RwtQe1FlqkxzekCK1L3gK-PC1s8LAXsxo2q95rTWDveSV9NE,,,space,1,0.463,0,16,16,22,1,X,space,,,,,,,,,,,,,,
,,,,,,,,,,,,,,,,wro80,001,,2023-11-23_07h20.57.420,Trial go no go,2020.2.10,MacIntel,60,IwAR1fS3tZKA3RwtQe1FlqkxzekCK1L3gK-PC1s8LAXsxo2q95rTWDveSV9NE,,,space,1,0.3136,0,17,17,2,1,X,space,,,,,,,,,,,,,,
,,,,,,,,,,,,,,,,wro80,001,,2023-11-23_07h20.57.420,Trial go no go,2020.2.10,MacIntel,60,IwAR1fS3tZKA3RwtQe1FlqkxzekCK1L3gK-PC1s8LAXsxo2q95rTWDveSV9NE,,,space,1,0.4038,0,18,18,32,1,X,space,,,,,,,,,,,,,,
,,,,,,,,,,,,,,,,wro80,001,,2023-11-23_07h20.57.420,Trial go no go,2020.2.10,MacIntel,60,IwAR1fS3tZKA3RwtQe1FlqkxzekCK1L3gK-PC1s8LAXsxo2q95rTWDveSV9NE,,,space,1,0.3144,0,19,19,26,1,X,space,,,,,,,,,,,,,,
,,,,,,,,,,,,,,,,wro80,001,,2023-11-23_07h20.57.420,Trial go no go,2020.2.10,MacIntel,60,IwAR1fS3tZKA3RwtQe1FlqkxzekCK1L3gK-PC1s8LAXsxo2q95rTWDveSV9NE,,,,1,,0,20,20,9,1,W,none,,,,,,,,,,,,,,
,,,,,,,,,,,,,,,,wro80,001,,2023-11-23_07h20.57.420,Trial go no go,2020.2.10,MacIntel,60,IwAR1fS3tZKA3RwtQe1FlqkxzekCK1L3gK-PC1s8LAXsxo2q95rTWDveSV9NE,,,space,1,0.4387,0,21,21,13,1,X,space,,,,,,,,,,,,,,
,,,,,,,,,,,,,,,,wro80,001,,2023-11-23_07h20.57.420,Trial go no go,2020.2.10,MacIntel,60,IwAR1fS3tZKA3RwtQe1FlqkxzekCK1L3gK-PC1s8LAXsxo2q95rTWDveSV9NE,,,space,1,0.4216,0,22,22,0,1,X,space,,,,,,,,,,,,,,
,,,,,,,,,,,,,,,,wro80,001,,2023-11-23_07h20.57.420,Trial go no go,2020.2.10,MacIntel,60,IwAR1fS3tZKA3RwtQe1FlqkxzekCK1L3gK-PC1s8LAXsxo2q95rTWDveSV9NE,,,space,1,0.4164,0,23,23,6,1,X,space,,,,,,,,,,,,,,
,,,,,,,,,,,,,,,,wro80,001,,2023-11-23_07h20.57.420,Trial go no go,2020.2.10,MacIntel,60,IwAR1fS3tZKA3RwtQe1FlqkxzekCK1L3gK-PC1s8LAXsxo2q95rTWDveSV9NE,,,space,1,0.4823,0,24,24,37,1,X,space,,,,,,,,,,,,,,
,,,,,,,,,,,,,,,,wro80,001,,2023-11-23_07h20.57.420,Trial go no go,2020.2.10,MacIntel,60,IwAR1fS3tZKA3RwtQe1FlqkxzekCK1L3gK-PC1s8LAXsxo2q95rTWDveSV9NE,,,space,1,0.3685,0,25,25,25,1,X,space,,,,,,,,,,,,,,
,,,,,,,,,,,,,,,,wro80,001,,2023-11-23_07h20.57.420,Trial go no go,2020.2.10,MacIntel,60,IwAR1fS3tZKA3RwtQe1FlqkxzekCK1L3gK-PC1s8LAXsxo2q95rTWDveSV9NE,,,space,1,0.3808,0,26,26,17,1,X,space,,,,,,,,,,,,,,
,,,,,,,,,,,,,,,,wro80,001,,2023-11-23_07h20.57.420,Trial go no go,2020.2.10,MacIntel,60,IwAR1fS3tZKA3RwtQe1FlqkxzekCK1L3gK-PC1s8LAXsxo2q95rTWDveSV9NE,,,space,1,0.3193,0,27,27,46,1,X,space,,,,,,,,,,,,,,
,,,,,,,,,,,,,,,,wro80,001,,2023-11-23_07h20.57.420,Trial go no go,2020.2.10,MacIntel,60,IwAR1fS3tZKA3RwtQe1FlqkxzekCK1L3gK-PC1s8LAXsxo2q95rTWDveSV9NE,,,space,1,0.3543,0,28,28,33,1,X,space,,,,,,,,,,,,,,
,,,,,,,,,,,,,,,,wro80,001,,2023-11-23_07h20.57.420,Trial go no go,2020.2.10,MacIntel,60,IwAR1fS3tZKA3RwtQe1FlqkxzekCK1L3gK-PC1s8LAXsxo2q95rTWDveSV9NE,,,space,1,0.3791,0,29,29,1,1,X,space,,,,,,,,,,,,,,
,,,,,,,,,,,,,,,,wro80,001,,2023-11-23_07h20.57.420,Trial go no go,2020.2.10,MacIntel,60,IwAR1fS3tZKA3RwtQe1FlqkxzekCK1L3gK-PC1s8LAXsxo2q95rTWDveSV9NE,,,space,1,0.3014,0,30,30,23,1,X,space,,,,,,,,,,,,,,
,,,,,,,,,,,,,,,,wro80,001,,2023-11-23_07h20.57.420,Trial go no go,2020.2.10,MacIntel,60,IwAR1fS3tZKA3RwtQe1FlqkxzekCK1L3gK-PC1s8LAXsxo2q95rTWDveSV9NE,,,space,1,0.35,0,31,31,45,1,X,space,,,,,,,,,,,,,,
,,,,,,,,,,,,,,,,wro80,001,,2023-11-23_07h20.57.420,Trial go no go,2020.2.10,MacIntel,60,IwAR1fS3tZKA3RwtQe1FlqkxzekCK1L3gK-PC1s8LAXsxo2q95rTWDveSV9NE,,,,1,,0,32,32,49,1,E,none,,,,,,,,,,,,,,
,,,,,,,,,,,,,,,,wro80,001,,2023-11-23_07h20.57.420,Trial go no go,2020.2.10,MacIntel,60,IwAR1fS3tZKA3RwtQe1FlqkxzekCK1L3gK-PC1s8LAXsxo2q95rTWDveSV9NE,,,space,1,0.3815,0,33,33,36,1,X,space,,,,,,,,,,,,,,
,,,,,,,,,,,,,,,,wro80,001,,2023-11-23_07h20.57.420,Trial go no go,2020.2.10,MacIntel,60,IwAR1fS3tZKA3RwtQe1FlqkxzekCK1L3gK-PC1s8LAXsxo2q95rTWDveSV9NE,,,space,1,0.3516,0,34,34,20,1,X,space,,,,,,,,,,,,,,
,,,,,,,,,,,,,,,,wro80,001,,2023-11-23_07h20.57.420,Trial go no go,2020.2.10,MacIntel,60,IwAR1fS3tZKA3RwtQe1FlqkxzekCK1L3gK-PC1s8LAXsxo2q95rTWDveSV9NE,,,space,1,0.3059,0,35,35,38,1,X,space,,,,,,,,,,,,,,
,,,,,,,,,,,,,,,,wro80,001,,2023-11-23_07h20.57.420,Trial go no go,2020.2.10,MacIntel,60,IwAR1fS3tZKA3RwtQe1FlqkxzekCK1L3gK-PC1s8LAXsxo2q95rTWDveSV9NE,,,space,1,0.2686,0,36,36,31,1,X,space,,,,,,,,,,,,,,
,,,,,,,,,,,,,,,,wro80,001,,2023-11-23_07h20.57.420,Trial go no go,2020.2.10,MacIntel,60,IwAR1fS3tZKA3RwtQe1FlqkxzekCK1L3gK-PC1s8LAXsxo2q95rTWDveSV9NE,,,space,1,0.2994,0,37,37,12,1,X,space,,,,,,,,,,,,,,
,,,,,,,,,,,,,,,,wro80,001,,2023-11-23_07h20.57.420,Trial go no go,2020.2.10,MacIntel,60,IwAR1fS3tZKA3RwtQe1FlqkxzekCK1L3gK-PC1s8LAXsxo2q95rTWDveSV9NE,,,space,0,0.3015,0,38,38,19,1,K,none,,,,,,,,,,,,,,
,,,,,,,,,,,,,,,,wro80,001,,2023-11-23_07h20.57.420,Trial go no go,2020.2.10,MacIntel,60,IwAR1fS3tZKA3RwtQe1FlqkxzekCK1L3gK-PC1s8LAXsxo2q95rTWDveSV9NE,,,space,1,0.366,0,39,39,47,1,X,space,,,,,,,,,,,,,,
,,,,,,,,,,,,,,,,wro80,001,,2023-11-23_07h20.57.420,Trial go no go,2020.2.10,MacIntel,60,IwAR1fS3tZKA3RwtQe1FlqkxzekCK1L3gK-PC1s8LAXsxo2q95rTWDveSV9NE,,,space,1,0.3786,0,40,40,18,1,X,space,,,,,,,,,,,,,,
,,,,,,,,,,,,,,,,wro80,001,,2023-11-23_07h20.57.420,Trial go no go,2020.2.10,MacIntel,60,IwAR1fS3tZKA3RwtQe1FlqkxzekCK1L3gK-PC1s8LAXsxo2q95rTWDveSV9NE,,,space,1,0.3045,0,41,41,30,1,X,space,,,,,,,,,,,,,,
,,,,,,,,,,,,,,,,wro80,001,,2023-11-23_07h20.57.420,Trial go no go,2020.2.10,MacIntel,60,IwAR1fS3tZKA3RwtQe1FlqkxzekCK1L3gK-PC1s8LAXsxo2q95rTWDveSV9NE,,,space,1,0.3197,0,42,42,8,1,X,space,,,,,,,,,,,,,,
,,,,,,,,,,,,,,,,wro80,001,,2023-11-23_07h20.57.420,Trial go no go,2020.2.10,MacIntel,60,IwAR1fS3tZKA3RwtQe1FlqkxzekCK1L3gK-PC1s8LAXsxo2q95rTWDveSV9NE,,,,1,,0,43,43,44,1,F,none,,,,,,,,,,,,,,
,,,,,,,,,,,,,,,,wro80,001,,2023-11-23_07h20.57.420,Trial go no go,2020.2.10,MacIntel,60,IwAR1fS3tZKA3RwtQe1FlqkxzekCK1L3gK-PC1s8LAXsxo2q95rTWDveSV9NE,,,space,1,0.2849,0,44,44,28,1,X,space,,,,,,,,,,,,,,
,,,,,,,,,,,,,,,,wro80,001,,2023-11-23_07h20.57.420,Trial go no go,2020.2.10,MacIntel,60,IwAR1fS3tZKA3RwtQe1FlqkxzekCK1L3gK-PC1s8LAXsxo2q95rTWDveSV9NE,,,space,1,0.3048,0,45,45,3,1,X,space,,,,,,,,,,,,,,
,,,,,,,,,,,,,,,,wro80,001,,2023-11-23_07h20.57.420,Trial go no go,2020.2.10,MacIntel,60,IwAR1fS3tZKA3RwtQe1FlqkxzekCK1L3gK-PC1s8LAXsxo2q95rTWDveSV9NE,,,space,1,0.3152,0,46,46,42,1,X,space,,,,,,,,,,,,,,
,,,,,,,,,,,,,,,,wro80,001,,2023-11-23_07h20.57.420,Trial go no go,2020.2.10,MacIntel,60,IwAR1fS3tZKA3RwtQe1FlqkxzekCK1L3gK-PC1s8LAXsxo2q95rTWDveSV9NE,,,space,1,0.3284,0,47,47,15,1,X,space,,,,,,,,,,,,,,
,,,,,,,,,,,,,,,,wro80,001,,2023-11-23_07h20.57.420,Trial go no go,2020.2.10,MacIntel,60,IwAR1fS3tZKA3RwtQe1FlqkxzekCK1L3gK-PC1s8LAXsxo2q95rTWDveSV9NE,,,space,1,0.3155,0,48,48,35,1,X,space,,,,,,,,,,,,,,
,,,,,,,,,,,,,,,,wro80,001,,2023-11-23_07h20.57.420,Trial go no go,2020.2.10,MacIntel,60,IwAR1fS3tZKA3RwtQe1FlqkxzekCK1L3gK-PC1s8LAXsxo2q95rTWDveSV9NE,,,,1,,0,49,49,24,1,H,none,,,,,,,,,,,,,,
,,,,,,,,,,,,,,,,wro80,001,,2023-11-23_07h20.57.420,Trial go no go,2020.2.10,MacIntel,60,IwAR1fS3tZKA3RwtQe1FlqkxzekCK1L3gK-PC1s8LAXsxo2q95rTWDveSV9NE,,,,,,,,,,,,,z,26.7331,,0,0,0,0,37,1,W,space,,,
,,,,,,,,,,,,,,,,wro80,001,,2023-11-23_07h20.57.420,Trial go no go,2020.2.10,MacIntel,60,IwAR1fS3tZKA3RwtQe1FlqkxzekCK1L3gK-PC1s8LAXsxo2q95rTWDveSV9NE,,,,,,,,,,,,,,,space,1,0,1,1,8,1,F,space,0.2647,,
,,,,,,,,,,,,,,,,wro80,001,,2023-11-23_07h20.57.420,Trial go no go,2020.2.10,MacIntel,60,IwAR1fS3tZKA3RwtQe1FlqkxzekCK1L3gK-PC1s8LAXsxo2q95rTWDveSV9NE,,,,,,,,,,,,,,,space,1,0,2,2,7,1,A,space,0.5653,,
,,,,,,,,,,,,,,,,wro80,001,,2023-11-23_07h20.57.420,Trial go no go,2020.2.10,MacIntel,60,IwAR1fS3tZKA3RwtQe1FlqkxzekCK1L3gK-PC1s8LAXsxo2q95rTWDveSV9NE,,,,,,,,,,,,,,,space,1,0,3,3,33,1,V,space,0.4785,,
,,,,,,,,,,,,,,,,wro80,001,,2023-11-23_07h20.57.420,Trial go no go,2020.2.10,MacIntel,60,IwAR1fS3tZKA3RwtQe1FlqkxzekCK1L3gK-PC1s8LAXsxo2q95rTWDveSV9NE,,,,,,,,,,,,,,,space,0,0,4,4,34,1,X,none,0.3445,,
,,,,,,,,,,,,,,,,wro80,001,,2023-11-23_07h20.57.420,Trial go no go,2020.2.10,MacIntel,60,IwAR1fS3tZKA3RwtQe1FlqkxzekCK1L3gK-PC1s8LAXsxo2q95rTWDveSV9NE,,,,,,,,,,,,,,,space,1,0,5,5,11,1,K,space,0.3486,,
,,,,,,,,,,,,,,,,wro80,001,,2023-11-23_07h20.57.420,Trial go no go,2020.2.10,MacIntel,60,IwAR1fS3tZKA3RwtQe1FlqkxzekCK1L3gK-PC1s8LAXsxo2q95rTWDveSV9NE,,,,,,,,,,,,,,,,1,0,6,6,29,1,X,none,,,
,,,,,,,,,,,,,,,,wro80,001,,2023-11-23_07h20.57.420,Trial go no go,2020.2.10,MacIntel,60,IwAR1fS3tZKA3RwtQe1FlqkxzekCK1L3gK-PC1s8LAXsxo2q95rTWDveSV9NE,,,,,,,,,,,,,,,space,1,0,7,7,10,1,H,space,0.3652,,
,,,,,,,,,,,,,,,,wro80,001,,2023-11-23_07h20.57.420,Trial go no go,2020.2.10,MacIntel,60,IwAR1fS3tZKA3RwtQe1FlqkxzekCK1L3gK-PC1s8LAXsxo2q95rTWDveSV9NE,,,,,,,,,,,,,,,space,1,0,8,8,35,1,N,space,0.4302,,
,,,,,,,,,,,,,,,,wro80,001,,2023-11-23_07h20.57.420,Trial go no go,2020.2.10,MacIntel,60,IwAR1fS3tZKA3RwtQe1FlqkxzekCK1L3gK-PC1s8LAXsxo2q95rTWDveSV9NE,,,,,,,,,,,,,,,space,1,0,9,9,6,1,I,space,0.494,,
,,,,,,,,,,,,,,,,wro80,001,,2023-11-23_07h20.57.420,Trial go no go,2020.2.10,MacIntel,60,IwAR1fS3tZKA3RwtQe1FlqkxzekCK1L3gK-PC1s8LAXsxo2q95rTWDveSV9NE,,,,,,,,,,,,,,,space,1,0,10,10,22,1,T,space,0.3961,,
,,,,,,,,,,,,,,,,wro80,001,,2023-11-23_07h20.57.420,Trial go no go,2020.2.10,MacIntel,60,IwAR1fS3tZKA3RwtQe1FlqkxzekCK1L3gK-PC1s8LAXsxo2q95rTWDveSV9NE,,,,,,,,,,,,,,,,1,0,11,11,19,1,X,none,,,
,,,,,,,,,,,,,,,,wro80,001,,2023-11-23_07h20.57.420,Trial go no go,2020.2.10,MacIntel,60,IwAR1fS3tZKA3RwtQe1FlqkxzekCK1L3gK-PC1s8LAXsxo2q95rTWDveSV9NE,,,,,,,,,,,,,,,space,1,0,12,12,31,1,L,space,0.3625,,
,,,,,,,,,,,,,,,,wro80,001,,2023-11-23_07h20.57.420,Trial go no go,2020.2.10,MacIntel,60,IwAR1fS3tZKA3RwtQe1FlqkxzekCK1L3gK-PC1s8LAXsxo2q95rTWDveSV9NE,,,,,,,,,,,,,,,space,1,0,13,13,30,1,K,space,0.4007,,
,,,,,,,,,,,,,,,,wro80,001,,2023-11-23_07h20.57.420,Trial go no go,2020.2.10,MacIntel,60,IwAR1fS3tZKA3RwtQe1FlqkxzekCK1L3gK-PC1s8LAXsxo2q95rTWDveSV9NE,,,,,,,,,,,,,,,space,1,0,14,14,18,1,W,space,0.4117,,
,,,,,,,,,,,,,,,,wro80,001,,2023-11-23_07h20.57.420,Trial go no go,2020.2.10,MacIntel,60,IwAR1fS3tZKA3RwtQe1FlqkxzekCK1L3gK-PC1s8LAXsxo2q95rTWDveSV9NE,,,,,,,,,,,,,,,,1,0,15,15,4,1,X,none,,,
,,,,,,,,,,,,,,,,wro80,001,,2023-11-23_07h20.57.420,Trial go no go,2020.2.10,MacIntel,60,IwAR1fS3tZKA3RwtQe1FlqkxzekCK1L3gK-PC1s8LAXsxo2q95rTWDveSV9NE,,,,,,,,,,,,,,,space,1,0,16,16,23,1,Y,space,0.4288,,
,,,,,,,,,,,,,,,,wro80,001,,2023-11-23_07h20.57.420,Trial go no go,2020.2.10,MacIntel,60,IwAR1fS3tZKA3RwtQe1FlqkxzekCK1L3gK-PC1s8LAXsxo2q95rTWDveSV9NE,,,,,,,,,,,,,,,space,1,0,17,17,27,1,F,space,0.4315,,
,,,,,,,,,,,,,,,,wro80,001,,2023-11-23_07h20.57.420,Trial go no go,2020.2.10,MacIntel,60,IwAR1fS3tZKA3RwtQe1FlqkxzekCK1L3gK-PC1s8LAXsxo2q95rTWDveSV9NE,,,,,,,,,,,,,,,space,1,0,18,18,13,1,Z,space,0.4323,,
,,,,,,,,,,,,,,,,wro80,001,,2023-11-23_07h20.57.420,Trial go no go,2020.2.10,MacIntel,60,IwAR1fS3tZKA3RwtQe1FlqkxzekCK1L3gK-PC1s8LAXsxo2q95rTWDveSV9NE,,,,,,,,,,,,,,,space,1,0,19,19,17,1,M,space,0.4131,,
,,,,,,,,,,,,,,,,wro80,001,,2023-11-23_07h20.57.420,Trial go no go,2020.2.10,MacIntel,60,IwAR1fS3tZKA3RwtQe1FlqkxzekCK1L3gK-PC1s8LAXsxo2q95rTWDveSV9NE,,,,,,,,,,,,,,,space,1,0,20,20,25,1,I,space,0.4536,,
,,,,,,,,,,,,,,,,wro80,001,,2023-11-23_07h20.57.420,Trial go no go,2020.2.10,MacIntel,60,IwAR1fS3tZKA3RwtQe1FlqkxzekCK1L3gK-PC1s8LAXsxo2q95rTWDveSV9NE,,,,,,,,,,,,,,,space,1,0,21,21,28,1,H,space,0.4284,,
,,,,,,,,,,,,,,,,wro80,001,,2023-11-23_07h20.57.420,Trial go no go,2020.2.10,MacIntel,60,IwAR1fS3tZKA3RwtQe1FlqkxzekCK1L3gK-PC1s8LAXsxo2q95rTWDveSV9NE,,,,,,,,,,,,,,,space,1,0,22,22,42,1,Y,space,0.9143,,
,,,,,,,,,,,,,,,,wro80,001,,2023-11-23_07h20.57.420,Trial go no go,2020.2.10,MacIntel,60,IwAR1fS3tZKA3RwtQe1FlqkxzekCK1L3gK-PC1s8LAXsxo2q95rTWDveSV9NE,,,,,,,,,,,,,,,space,1,0,23,23,32,1,Z,space,0.4769,,
,,,,,,,,,,,,,,,,wro80,001,,2023-11-23_07h20.57.420,Trial go no go,2020.2.10,MacIntel,60,IwAR1fS3tZKA3RwtQe1FlqkxzekCK1L3gK-PC1s8LAXsxo2q95rTWDveSV9NE,,,,,,,,,,,,,,,space,1,0,24,24,12,1,L,space,0.3849,,
,,,,,,,,,,,,,,,,wro80,001,,2023-11-23_07h20.57.420,Trial go no go,2020.2.10,MacIntel,60,IwAR1fS3tZKA3RwtQe1FlqkxzekCK1L3gK-PC1s8LAXsxo2q95rTWDveSV9NE,,,,,,,,,,,,,,,space,1,0,25,25,2,1,R,space,0.3923,,
,,,,,,,,,,,,,,,,wro80,001,,2023-11-23_07h20.57.420,Trial go no go,2020.2.10,MacIntel,60,IwAR1fS3tZKA3RwtQe1FlqkxzekCK1L3gK-PC1s8LAXsxo2q95rTWDveSV9NE,,,,,,,,,,,,,,,space,1,0,26,26,21,1,R,space,0.3984,,
,,,,,,,,,,,,,,,,wro80,001,,2023-11-23_07h20.57.420,Trial go no go,2020.2.10,MacIntel,60,IwAR1fS3tZKA3RwtQe1FlqkxzekCK1L3gK-PC1s8LAXsxo2q95rTWDveSV9NE,,,,,,,,,,,,,,,,1,0,27,27,14,1,X,none,,,
,,,,,,,,,,,,,,,,wro80,001,,2023-11-23_07h20.57.420,Trial go no go,2020.2.10,MacIntel,60,IwAR1fS3tZKA3RwtQe1FlqkxzekCK1L3gK-PC1s8LAXsxo2q95rTWDveSV9NE,,,,,,,,,,,,,,,space,1,0,28,28,20,1,E,space,0.4153,,
,,,,,,,,,,,,,,,,wro80,001,,2023-11-23_07h20.57.420,Trial go no go,2020.2.10,MacIntel,60,IwAR1fS3tZKA3RwtQe1FlqkxzekCK1L3gK-PC1s8LAXsxo2q95rTWDveSV9NE,,,,,,,,,,,,,,,space,1,0,29,29,16,1,N,space,0.3814,,
,,,,,,,,,,,,,,,,wro80,001,,2023-11-23_07h20.57.420,Trial go no go,2020.2.10,MacIntel,60,IwAR1fS3tZKA3RwtQe1FlqkxzekCK1L3gK-PC1s8LAXsxo2q95rTWDveSV9NE,,,,,,,,,,,,,,,space,1,0,30,30,26,1,A,space,0.4147,,
,,,,,,,,,,,,,,,,wro80,001,,2023-11-23_07h20.57.420,Trial go no go,2020.2.10,MacIntel,60,IwAR1fS3tZKA3RwtQe1FlqkxzekCK1L3gK-PC1s8LAXsxo2q95rTWDveSV9NE,,,,,,,,,,,,,,,space,1,0,31,31,40,1,R,space,0.3952,,
,,,,,,,,,,,,,,,,wro80,001,,2023-11-23_07h20.57.420,Trial go no go,2020.2.10,MacIntel,60,IwAR1fS3tZKA3RwtQe1FlqkxzekCK1L3gK-PC1s8LAXsxo2q95rTWDveSV9NE,,,,,,,,,,,,,,,,1,0,32,32,24,1,X,none,,,
,,,,,,,,,,,,,,,,wro80,001,,2023-11-23_07h20.57.420,Trial go no go,2020.2.10,MacIntel,60,IwAR1fS3tZKA3RwtQe1FlqkxzekCK1L3gK-PC1s8LAXsxo2q95rTWDveSV9NE,,,,,,,,,,,,,,,space,0,0,33,33,49,1,X,none,0.3493,,
,,,,,,,,,,,,,,,,wro80,001,,2023-11-23_07h20.57.420,Trial go no go,2020.2.10,MacIntel,60,IwAR1fS3tZKA3RwtQe1FlqkxzekCK1L3gK-PC1s8LAXsxo2q95rTWDveSV9NE,,,,,,,,,,,,,,,space,1,0,34,34,38,1,E,space,0.3478,,
,,,,,,,,,,,,,,,,wro80,001,,2023-11-23_07h20.57.420,Trial go no go,2020.2.10,MacIntel,60,IwAR1fS3tZKA3RwtQe1FlqkxzekCK1L3gK-PC1s8LAXsxo2q95rTWDveSV9NE,,,,,,,,,,,,,,,,1,0,35,35,39,1,X,none,,,
,,,,,,,,,,,,,,,,wro80,001,,2023-11-23_07h20.57.420,Trial go no go,2020.2.10,MacIntel,60,IwAR1fS3tZKA3RwtQe1FlqkxzekCK1L3gK-PC1s8LAXsxo2q95rTWDveSV9NE,,,,,,,,,,,,,,,space,1,0,36,36,36,1,M,space,0.5166,,
,,,,,,,,,,,,,,,,wro80,001,,2023-11-23_07h20.57.420,Trial go no go,2020.2.10,MacIntel,60,IwAR1fS3tZKA3RwtQe1FlqkxzekCK1L3gK-PC1s8LAXsxo2q95rTWDveSV9NE,,,,,,,,,,,,,,,space,1,0,37,37,46,1,F,space,0.4002,,
,,,,,,,,,,,,,,,,wro80,001,,2023-11-23_07h20.57.420,Trial go no go,2020.2.10,MacIntel,60,IwAR1fS3tZKA3RwtQe1FlqkxzekCK1L3gK-PC1s8LAXsxo2q95rTWDveSV9NE,,,,,,,,,,,,,,,space,1,0,38,38,0,1,W,space,0.3521,,
,,,,,,,,,,,,,,,,wro80,001,,2023-11-23_07h20.57.420,Trial go no go,2020.2.10,MacIntel,60,IwAR1fS3tZKA3RwtQe1FlqkxzekCK1L3gK-PC1s8LAXsxo2q95rTWDveSV9NE,,,,,,,,,,,,,,,space,1,0,39,39,5,1,Y,space,0.6634,,
,,,,,,,,,,,,,,,,wro80,001,,2023-11-23_07h20.57.420,Trial go no go,2020.2.10,MacIntel,60,IwAR1fS3tZKA3RwtQe1FlqkxzekCK1L3gK-PC1s8LAXsxo2q95rTWDveSV9NE,,,,,,,,,,,,,,,space,1,0,40,40,15,1,V,space,0.3657,,
,,,,,,,,,,,,,,,,wro80,001,,2023-11-23_07h20.57.420,Trial go no go,2020.2.10,MacIntel,60,IwAR1fS3tZKA3RwtQe1FlqkxzekCK1L3gK-PC1s8LAXsxo2q95rTWDveSV9NE,,,,,,,,,,,,,,,space,1,0,41,41,43,1,I,space,0.3977,,
,,,,,,,,,,,,,,,,wro80,001,,2023-11-23_07h20.57.420,Trial go no go,2020.2.10,MacIntel,60,IwAR1fS3tZKA3RwtQe1FlqkxzekCK1L3gK-PC1s8LAXsxo2q95rTWDveSV9NE,,,,,,,,,,,,,,,space,1,0,42,42,48,1,K,space,0.4057,,
,,,,,,,,,,,,,,,,wro80,001,,2023-11-23_07h20.57.420,Trial go no go,2020.2.10,MacIntel,60,IwAR1fS3tZKA3RwtQe1FlqkxzekCK1L3gK-PC1s8LAXsxo2q95rTWDveSV9NE,,,,,,,,,,,,,,,,1,0,43,43,9,1,X,none,,,
,,,,,,,,,,,,,,,,wro80,001,,2023-11-23_07h20.57.420,Trial go no go,2020.2.10,MacIntel,60,IwAR1fS3tZKA3RwtQe1FlqkxzekCK1L3gK-PC1s8LAXsxo2q95rTWDveSV9NE,,,,,,,,,,,,,,,,1,0,44,44,44,1,X,none,,,
,,,,,,,,,,,,,,,,wro80,001,,2023-11-23_07h20.57.420,Trial go no go,2020.2.10,MacIntel,60,IwAR1fS3tZKA3RwtQe1FlqkxzekCK1L3gK-PC1s8LAXsxo2q95rTWDveSV9NE,,,,,,,,,,,,,,,space,1,0,45,45,1,1,E,space,0.3635,,
,,,,,,,,,,,,,,,,wro80,001,,2023-11-23_07h20.57.420,Trial go no go,2020.2.10,MacIntel,60,IwAR1fS3tZKA3RwtQe1FlqkxzekCK1L3gK-PC1s8LAXsxo2q95rTWDveSV9NE,,,,,,,,,,,,,,,space,1,0,46,46,45,1,A,space,0.331,,
,,,,,,,,,,,,,,,,wro80,001,,2023-11-23_07h20.57.420,Trial go no go,2020.2.10,MacIntel,60,IwAR1fS3tZKA3RwtQe1FlqkxzekCK1L3gK-PC1s8LAXsxo2q95rTWDveSV9NE,,,,,,,,,,,,,,,space,1,0,47,47,47,1,H,space,0.3668,,
,,,,,,,,,,,,,,,,wro80,001,,2023-11-23_07h20.57.420,Trial go no go,2020.2.10,MacIntel,60,IwAR1fS3tZKA3RwtQe1FlqkxzekCK1L3gK-PC1s8LAXsxo2q95rTWDveSV9NE,,,,,,,,,,,,,,,space,1,0,48,48,41,1,T,space,0.3496,,
,,,,,,,,,,,,,,,,wro80,001,,2023-11-23_07h20.57.420,Trial go no go,2020.2.10,MacIntel,60,IwAR1fS3tZKA3RwtQe1FlqkxzekCK1L3gK-PC1s8LAXsxo2q95rTWDveSV9NE,,,,,,,,,,,,,,,space,1,0,49,49,3,1,T,space,0.3999,,
,,,,,,,,,,,,,,,,wro80,001,,2023-11-23_07h20.57.420,Trial go no go,2020.2.10,MacIntel,60,IwAR1fS3tZKA3RwtQe1FlqkxzekCK1L3gK-PC1s8LAXsxo2q95rTWDveSV9NE,,,,,,,,,,,,,,,,,,,,,,,,,space,35.3849
