resp_Welcome.keys,resp_Welcome.rt,resp_Instr_Intro.keys,resp_Instr_Intro.rt,resp_Instr_Prac1.keys,resp_Instr_Prac1.rt,resp_trial_Prac1.keys,resp_trial_Prac1.corr,resp_trial_Prac1.rt,prac_trials.thisRepN,prac_trials.thisTrialN,prac_trials.thisN,prac_trials.thisIndex,prac_trials.ran,stimulus_prac1,corrAns_prac1,participant,session,indywidualny kod,date,expName,psychopyVersion,OS,frameRate,fbclid,resp_Instr_Test1.keys,resp_Instr_Test1.rt,resp_trial_Test1.keys,resp_trial_Test1.corr,resp_trial_Test1.rt,test1trial.thisRepN,test1trial.thisTrialN,test1trial.thisN,test1trial.thisIndex,test1trial.ran,stimulus_test1,corrAns_test1,resp_Instr_Test2.keys,resp_Instr_Test2.rt,key_resp_Test2.keys,key_resp_Test2.corr,test2trial.thisRepN,test2trial.thisTrialN,test2trial.thisN,test2trial.thisIndex,test2trial.ran,stimulus_test2,corrAns_test2,key_resp_Test2.rt,resp_theEnd.keys,resp_theEnd.rt
space,6.8657,space,13.6386,space,8.9516,space,1,0.4814,0,0,0,2,1,X,space,WRO81,001,,2023-12-11_14h21.49.605,Trial go no go,2020.2.10,MacIntel,60,IwAR1bTyDSHG7yZt3pEUVRaYGabdFDzI1kK7QKxBFTaedbp8_RWbqA8W8CVpI,,,,,,,,,,,,,,,,,,,,,,,,,,
,,,,,,space,1,0.4833,0,1,1,7,1,X,space,WRO81,001,,2023-12-11_14h21.49.605,Trial go no go,2020.2.10,MacIntel,60,IwAR1bTyDSHG7yZt3pEUVRaYGabdFDzI1kK7QKxBFTaedbp8_RWbqA8W8CVpI,,,,,,,,,,,,,,,,,,,,,,,,,,
,,,,,,space,1,0.4226,0,2,2,8,1,X,space,WRO81,001,,2023-12-11_14h21.49.605,Trial go no go,2020.2.10,MacIntel,60,IwAR1bTyDSHG7yZt3pEUVRaYGabdFDzI1kK7QKxBFTaedbp8_RWbqA8W8CVpI,,,,,,,,,,,,,,,,,,,,,,,,,,
,,,,,,space,1,0.4496,0,3,3,10,1,X,space,WRO81,001,,2023-12-11_14h21.49.605,Trial go no go,2020.2.10,MacIntel,60,IwAR1bTyDSHG7yZt3pEUVRaYGabdFDzI1kK7QKxBFTaedbp8_RWbqA8W8CVpI,,,,,,,,,,,,,,,,,,,,,,,,,,
,,,,,,,1,,0,4,4,14,1,K,none,WRO81,001,,2023-12-11_14h21.49.605,Trial go no go,2020.2.10,MacIntel,60,IwAR1bTyDSHG7yZt3pEUVRaYGabdFDzI1kK7QKxBFTaedbp8_RWbqA8W8CVpI,,,,,,,,,,,,,,,,,,,,,,,,,,
,,,,,,space,1,0.4809,0,5,5,11,1,X,space,WRO81,001,,2023-12-11_14h21.49.605,Trial go no go,2020.2.10,MacIntel,60,IwAR1bTyDSHG7yZt3pEUVRaYGabdFDzI1kK7QKxBFTaedbp8_RWbqA8W8CVpI,,,,,,,,,,,,,,,,,,,,,,,,,,
,,,,,,space,1,0.4493,0,6,6,1,1,X,space,WRO81,001,,2023-12-11_14h21.49.605,Trial go no go,2020.2.10,MacIntel,60,IwAR1bTyDSHG7yZt3pEUVRaYGabdFDzI1kK7QKxBFTaedbp8_RWbqA8W8CVpI,,,,,,,,,,,,,,,,,,,,,,,,,,
,,,,,,space,1,0.3991,0,7,7,6,1,X,space,WRO81,001,,2023-12-11_14h21.49.605,Trial go no go,2020.2.10,MacIntel,60,IwAR1bTyDSHG7yZt3pEUVRaYGabdFDzI1kK7QKxBFTaedbp8_RWbqA8W8CVpI,,,,,,,,,,,,,,,,,,,,,,,,,,
,,,,,,space,1,0.3834,0,8,8,0,1,X,space,WRO81,001,,2023-12-11_14h21.49.605,Trial go no go,2020.2.10,MacIntel,60,IwAR1bTyDSHG7yZt3pEUVRaYGabdFDzI1kK7QKxBFTaedbp8_RWbqA8W8CVpI,,,,,,,,,,,,,,,,,,,,,,,,,,
,,,,,,space,1,0.5329,0,9,9,5,1,X,space,WRO81,001,,2023-12-11_14h21.49.605,Trial go no go,2020.2.10,MacIntel,60,IwAR1bTyDSHG7yZt3pEUVRaYGabdFDzI1kK7QKxBFTaedbp8_RWbqA8W8CVpI,,,,,,,,,,,,,,,,,,,,,,,,,,
,,,,,,space,1,0.4532,0,10,10,12,1,X,space,WRO81,001,,2023-12-11_14h21.49.605,Trial go no go,2020.2.10,MacIntel,60,IwAR1bTyDSHG7yZt3pEUVRaYGabdFDzI1kK7QKxBFTaedbp8_RWbqA8W8CVpI,,,,,,,,,,,,,,,,,,,,,,,,,,
,,,,,,,1,,0,11,11,4,1,W,none,WRO81,001,,2023-12-11_14h21.49.605,Trial go no go,2020.2.10,MacIntel,60,IwAR1bTyDSHG7yZt3pEUVRaYGabdFDzI1kK7QKxBFTaedbp8_RWbqA8W8CVpI,,,,,,,,,,,,,,,,,,,,,,,,,,
,,,,,,space,1,0.4477,0,12,12,13,1,X,space,WRO81,001,,2023-12-11_14h21.49.605,Trial go no go,2020.2.10,MacIntel,60,IwAR1bTyDSHG7yZt3pEUVRaYGabdFDzI1kK7QKxBFTaedbp8_RWbqA8W8CVpI,,,,,,,,,,,,,,,,,,,,,,,,,,
,,,,,,space,1,0.3834,0,13,13,3,1,X,space,WRO81,001,,2023-12-11_14h21.49.605,Trial go no go,2020.2.10,MacIntel,60,IwAR1bTyDSHG7yZt3pEUVRaYGabdFDzI1kK7QKxBFTaedbp8_RWbqA8W8CVpI,,,,,,,,,,,,,,,,,,,,,,,,,,
,,,,,,,1,,0,14,14,9,1,V,none,WRO81,001,,2023-12-11_14h21.49.605,Trial go no go,2020.2.10,MacIntel,60,IwAR1bTyDSHG7yZt3pEUVRaYGabdFDzI1kK7QKxBFTaedbp8_RWbqA8W8CVpI,,,,,,,,,,,,,,,,,,,,,,,,,,
,,,,,,,,,,,,,,,,WRO81,001,,2023-12-11_14h21.49.605,Trial go no go,2020.2.10,MacIntel,60,IwAR1bTyDSHG7yZt3pEUVRaYGabdFDzI1kK7QKxBFTaedbp8_RWbqA8W8CVpI,space,6.0175,space,1,0.3655,0,0,0,42,1,X,space,,,,,,,,,,,,,,
,,,,,,,,,,,,,,,,WRO81,001,,2023-12-11_14h21.49.605,Trial go no go,2020.2.10,MacIntel,60,IwAR1bTyDSHG7yZt3pEUVRaYGabdFDzI1kK7QKxBFTaedbp8_RWbqA8W8CVpI,,,,1,,0,1,1,44,1,F,none,,,,,,,,,,,,,,
,,,,,,,,,,,,,,,,WRO81,001,,2023-12-11_14h21.49.605,Trial go no go,2020.2.10,MacIntel,60,IwAR1bTyDSHG7yZt3pEUVRaYGabdFDzI1kK7QKxBFTaedbp8_RWbqA8W8CVpI,,,space,1,0.3357,0,2,2,41,1,X,space,,,,,,,,,,,,,,
,,,,,,,,,,,,,,,,WRO81,001,,2023-12-11_14h21.49.605,Trial go no go,2020.2.10,MacIntel,60,IwAR1bTyDSHG7yZt3pEUVRaYGabdFDzI1kK7QKxBFTaedbp8_RWbqA8W8CVpI,,,space,1,0.3794,0,3,3,28,1,X,space,,,,,,,,,,,,,,
,,,,,,,,,,,,,,,,WRO81,001,,2023-12-11_14h21.49.605,Trial go no go,2020.2.10,MacIntel,60,IwAR1bTyDSHG7yZt3pEUVRaYGabdFDzI1kK7QKxBFTaedbp8_RWbqA8W8CVpI,,,,1,,0,4,4,9,1,W,none,,,,,,,,,,,,,,
,,,,,,,,,,,,,,,,WRO81,001,,2023-12-11_14h21.49.605,Trial go no go,2020.2.10,MacIntel,60,IwAR1bTyDSHG7yZt3pEUVRaYGabdFDzI1kK7QKxBFTaedbp8_RWbqA8W8CVpI,,,space,1,0.3545,0,5,5,1,1,X,space,,,,,,,,,,,,,,
,,,,,,,,,,,,,,,,WRO81,001,,2023-12-11_14h21.49.605,Trial go no go,2020.2.10,MacIntel,60,IwAR1bTyDSHG7yZt3pEUVRaYGabdFDzI1kK7QKxBFTaedbp8_RWbqA8W8CVpI,,,space,1,0.3806,0,6,6,18,1,X,space,,,,,,,,,,,,,,
,,,,,,,,,,,,,,,,WRO81,001,,2023-12-11_14h21.49.605,Trial go no go,2020.2.10,MacIntel,60,IwAR1bTyDSHG7yZt3pEUVRaYGabdFDzI1kK7QKxBFTaedbp8_RWbqA8W8CVpI,,,,1,,0,7,7,19,1,K,none,,,,,,,,,,,,,,
,,,,,,,,,,,,,,,,WRO81,001,,2023-12-11_14h21.49.605,Trial go no go,2020.2.10,MacIntel,60,IwAR1bTyDSHG7yZt3pEUVRaYGabdFDzI1kK7QKxBFTaedbp8_RWbqA8W8CVpI,,,space,1,0.2809,0,8,8,11,1,X,space,,,,,,,,,,,,,,
,,,,,,,,,,,,,,,,WRO81,001,,2023-12-11_14h21.49.605,Trial go no go,2020.2.10,MacIntel,60,IwAR1bTyDSHG7yZt3pEUVRaYGabdFDzI1kK7QKxBFTaedbp8_RWbqA8W8CVpI,,,space,1,0.349,0,9,9,22,1,X,space,,,,,,,,,,,,,,
,,,,,,,,,,,,,,,,WRO81,001,,2023-12-11_14h21.49.605,Trial go no go,2020.2.10,MacIntel,60,IwAR1bTyDSHG7yZt3pEUVRaYGabdFDzI1kK7QKxBFTaedbp8_RWbqA8W8CVpI,,,space,1,0.3503,0,10,10,33,1,X,space,,,,,,,,,,,,,,
,,,,,,,,,,,,,,,,WRO81,001,,2023-12-11_14h21.49.605,Trial go no go,2020.2.10,MacIntel,60,IwAR1bTyDSHG7yZt3pEUVRaYGabdFDzI1kK7QKxBFTaedbp8_RWbqA8W8CVpI,,,space,1,0.3165,0,11,11,13,1,X,space,,,,,,,,,,,,,,
,,,,,,,,,,,,,,,,WRO81,001,,2023-12-11_14h21.49.605,Trial go no go,2020.2.10,MacIntel,60,IwAR1bTyDSHG7yZt3pEUVRaYGabdFDzI1kK7QKxBFTaedbp8_RWbqA8W8CVpI,,,space,1,0.2967,0,12,12,6,1,X,space,,,,,,,,,,,,,,
,,,,,,,,,,,,,,,,WRO81,001,,2023-12-11_14h21.49.605,Trial go no go,2020.2.10,MacIntel,60,IwAR1bTyDSHG7yZt3pEUVRaYGabdFDzI1kK7QKxBFTaedbp8_RWbqA8W8CVpI,,,,1,,0,13,13,49,1,E,none,,,,,,,,,,,,,,
,,,,,,,,,,,,,,,,WRO81,001,,2023-12-11_14h21.49.605,Trial go no go,2020.2.10,MacIntel,60,IwAR1bTyDSHG7yZt3pEUVRaYGabdFDzI1kK7QKxBFTaedbp8_RWbqA8W8CVpI,,,space,1,0.3131,0,14,14,43,1,X,space,,,,,,,,,,,,,,
,,,,,,,,,,,,,,,,WRO81,001,,2023-12-11_14h21.49.605,Trial go no go,2020.2.10,MacIntel,60,IwAR1bTyDSHG7yZt3pEUVRaYGabdFDzI1kK7QKxBFTaedbp8_RWbqA8W8CVpI,,,space,1,0.366,0,15,15,46,1,X,space,,,,,,,,,,,,,,
,,,,,,,,,,,,,,,,WRO81,001,,2023-12-11_14h21.49.605,Trial go no go,2020.2.10,MacIntel,60,IwAR1bTyDSHG7yZt3pEUVRaYGabdFDzI1kK7QKxBFTaedbp8_RWbqA8W8CVpI,,,space,1,0.2896,0,16,16,48,1,X,space,,,,,,,,,,,,,,
,,,,,,,,,,,,,,,,WRO81,001,,2023-12-11_14h21.49.605,Trial go no go,2020.2.10,MacIntel,60,IwAR1bTyDSHG7yZt3pEUVRaYGabdFDzI1kK7QKxBFTaedbp8_RWbqA8W8CVpI,,,,1,,0,17,17,14,1,Y,none,,,,,,,,,,,,,,
,,,,,,,,,,,,,,,,WRO81,001,,2023-12-11_14h21.49.605,Trial go no go,2020.2.10,MacIntel,60,IwAR1bTyDSHG7yZt3pEUVRaYGabdFDzI1kK7QKxBFTaedbp8_RWbqA8W8CVpI,,,space,1,0.3167,0,18,18,40,1,X,space,,,,,,,,,,,,,,
,,,,,,,,,,,,,,,,WRO81,001,,2023-12-11_14h21.49.605,Trial go no go,2020.2.10,MacIntel,60,IwAR1bTyDSHG7yZt3pEUVRaYGabdFDzI1kK7QKxBFTaedbp8_RWbqA8W8CVpI,,,space,1,0.3689,0,19,19,35,1,X,space,,,,,,,,,,,,,,
,,,,,,,,,,,,,,,,WRO81,001,,2023-12-11_14h21.49.605,Trial go no go,2020.2.10,MacIntel,60,IwAR1bTyDSHG7yZt3pEUVRaYGabdFDzI1kK7QKxBFTaedbp8_RWbqA8W8CVpI,,,space,1,0.3149,0,20,20,0,1,X,space,,,,,,,,,,,,,,
,,,,,,,,,,,,,,,,WRO81,001,,2023-12-11_14h21.49.605,Trial go no go,2020.2.10,MacIntel,60,IwAR1bTyDSHG7yZt3pEUVRaYGabdFDzI1kK7QKxBFTaedbp8_RWbqA8W8CVpI,,,space,1,0.2973,0,21,21,3,1,X,space,,,,,,,,,,,,,,
,,,,,,,,,,,,,,,,WRO81,001,,2023-12-11_14h21.49.605,Trial go no go,2020.2.10,MacIntel,60,IwAR1bTyDSHG7yZt3pEUVRaYGabdFDzI1kK7QKxBFTaedbp8_RWbqA8W8CVpI,,,space,1,0.3846,0,22,22,47,1,X,space,,,,,,,,,,,,,,
,,,,,,,,,,,,,,,,WRO81,001,,2023-12-11_14h21.49.605,Trial go no go,2020.2.10,MacIntel,60,IwAR1bTyDSHG7yZt3pEUVRaYGabdFDzI1kK7QKxBFTaedbp8_RWbqA8W8CVpI,,,space,1,0.3375,0,23,23,17,1,X,space,,,,,,,,,,,,,,
,,,,,,,,,,,,,,,,WRO81,001,,2023-12-11_14h21.49.605,Trial go no go,2020.2.10,MacIntel,60,IwAR1bTyDSHG7yZt3pEUVRaYGabdFDzI1kK7QKxBFTaedbp8_RWbqA8W8CVpI,,,space,1,0.5307,0,24,24,45,1,X,space,,,,,,,,,,,,,,
,,,,,,,,,,,,,,,,WRO81,001,,2023-12-11_14h21.49.605,Trial go no go,2020.2.10,MacIntel,60,IwAR1bTyDSHG7yZt3pEUVRaYGabdFDzI1kK7QKxBFTaedbp8_RWbqA8W8CVpI,,,space,1,0.407,0,25,25,2,1,X,space,,,,,,,,,,,,,,
,,,,,,,,,,,,,,,,WRO81,001,,2023-12-11_14h21.49.605,Trial go no go,2020.2.10,MacIntel,60,IwAR1bTyDSHG7yZt3pEUVRaYGabdFDzI1kK7QKxBFTaedbp8_RWbqA8W8CVpI,,,space,1,0.3804,0,26,26,30,1,X,space,,,,,,,,,,,,,,
,,,,,,,,,,,,,,,,WRO81,001,,2023-12-11_14h21.49.605,Trial go no go,2020.2.10,MacIntel,60,IwAR1bTyDSHG7yZt3pEUVRaYGabdFDzI1kK7QKxBFTaedbp8_RWbqA8W8CVpI,,,space,1,0.3546,0,27,27,38,1,X,space,,,,,,,,,,,,,,
,,,,,,,,,,,,,,,,WRO81,001,,2023-12-11_14h21.49.605,Trial go no go,2020.2.10,MacIntel,60,IwAR1bTyDSHG7yZt3pEUVRaYGabdFDzI1kK7QKxBFTaedbp8_RWbqA8W8CVpI,,,space,1,0.3006,0,28,28,31,1,X,space,,,,,,,,,,,,,,
,,,,,,,,,,,,,,,,WRO81,001,,2023-12-11_14h21.49.605,Trial go no go,2020.2.10,MacIntel,60,IwAR1bTyDSHG7yZt3pEUVRaYGabdFDzI1kK7QKxBFTaedbp8_RWbqA8W8CVpI,,,space,1,0.3198,0,29,29,23,1,X,space,,,,,,,,,,,,,,
,,,,,,,,,,,,,,,,WRO81,001,,2023-12-11_14h21.49.605,Trial go no go,2020.2.10,MacIntel,60,IwAR1bTyDSHG7yZt3pEUVRaYGabdFDzI1kK7QKxBFTaedbp8_RWbqA8W8CVpI,,,space,1,0.4148,0,30,30,16,1,X,space,,,,,,,,,,,,,,
,,,,,,,,,,,,,,,,WRO81,001,,2023-12-11_14h21.49.605,Trial go no go,2020.2.10,MacIntel,60,IwAR1bTyDSHG7yZt3pEUVRaYGabdFDzI1kK7QKxBFTaedbp8_RWbqA8W8CVpI,,,space,1,0.3624,0,31,31,12,1,X,space,,,,,,,,,,,,,,
,,,,,,,,,,,,,,,,WRO81,001,,2023-12-11_14h21.49.605,Trial go no go,2020.2.10,MacIntel,60,IwAR1bTyDSHG7yZt3pEUVRaYGabdFDzI1kK7QKxBFTaedbp8_RWbqA8W8CVpI,,,space,1,0.4005,0,32,32,26,1,X,space,,,,,,,,,,,,,,
,,,,,,,,,,,,,,,,WRO81,001,,2023-12-11_14h21.49.605,Trial go no go,2020.2.10,MacIntel,60,IwAR1bTyDSHG7yZt3pEUVRaYGabdFDzI1kK7QKxBFTaedbp8_RWbqA8W8CVpI,,,,1,,0,33,33,29,1,T,none,,,,,,,,,,,,,,
,,,,,,,,,,,,,,,,WRO81,001,,2023-12-11_14h21.49.605,Trial go no go,2020.2.10,MacIntel,60,IwAR1bTyDSHG7yZt3pEUVRaYGabdFDzI1kK7QKxBFTaedbp8_RWbqA8W8CVpI,,,,1,,0,34,34,4,1,V,none,,,,,,,,,,,,,,
,,,,,,,,,,,,,,,,WRO81,001,,2023-12-11_14h21.49.605,Trial go no go,2020.2.10,MacIntel,60,IwAR1bTyDSHG7yZt3pEUVRaYGabdFDzI1kK7QKxBFTaedbp8_RWbqA8W8CVpI,,,space,1,0.3043,0,35,35,37,1,X,space,,,,,,,,,,,,,,
,,,,,,,,,,,,,,,,WRO81,001,,2023-12-11_14h21.49.605,Trial go no go,2020.2.10,MacIntel,60,IwAR1bTyDSHG7yZt3pEUVRaYGabdFDzI1kK7QKxBFTaedbp8_RWbqA8W8CVpI,,,space,1,0.3356,0,36,36,5,1,X,space,,,,,,,,,,,,,,
,,,,,,,,,,,,,,,,WRO81,001,,2023-12-11_14h21.49.605,Trial go no go,2020.2.10,MacIntel,60,IwAR1bTyDSHG7yZt3pEUVRaYGabdFDzI1kK7QKxBFTaedbp8_RWbqA8W8CVpI,,,space,1,0.3006,0,37,37,25,1,X,space,,,,,,,,,,,,,,
,,,,,,,,,,,,,,,,WRO81,001,,2023-12-11_14h21.49.605,Trial go no go,2020.2.10,MacIntel,60,IwAR1bTyDSHG7yZt3pEUVRaYGabdFDzI1kK7QKxBFTaedbp8_RWbqA8W8CVpI,,,space,1,0.3013,0,38,38,27,1,X,space,,,,,,,,,,,,,,
,,,,,,,,,,,,,,,,WRO81,001,,2023-12-11_14h21.49.605,Trial go no go,2020.2.10,MacIntel,60,IwAR1bTyDSHG7yZt3pEUVRaYGabdFDzI1kK7QKxBFTaedbp8_RWbqA8W8CVpI,,,,1,,0,39,39,34,1,N,none,,,,,,,,,,,,,,
,,,,,,,,,,,,,,,,WRO81,001,,2023-12-11_14h21.49.605,Trial go no go,2020.2.10,MacIntel,60,IwAR1bTyDSHG7yZt3pEUVRaYGabdFDzI1kK7QKxBFTaedbp8_RWbqA8W8CVpI,,,space,1,0.4175,0,40,40,8,1,X,space,,,,,,,,,,,,,,
,,,,,,,,,,,,,,,,WRO81,001,,2023-12-11_14h21.49.605,Trial go no go,2020.2.10,MacIntel,60,IwAR1bTyDSHG7yZt3pEUVRaYGabdFDzI1kK7QKxBFTaedbp8_RWbqA8W8CVpI,,,,1,,0,41,41,24,1,H,none,,,,,,,,,,,,,,
,,,,,,,,,,,,,,,,WRO81,001,,2023-12-11_14h21.49.605,Trial go no go,2020.2.10,MacIntel,60,IwAR1bTyDSHG7yZt3pEUVRaYGabdFDzI1kK7QKxBFTaedbp8_RWbqA8W8CVpI,,,space,1,0.2997,0,42,42,36,1,X,space,,,,,,,,,,,,,,
,,,,,,,,,,,,,,,,WRO81,001,,2023-12-11_14h21.49.605,Trial go no go,2020.2.10,MacIntel,60,IwAR1bTyDSHG7yZt3pEUVRaYGabdFDzI1kK7QKxBFTaedbp8_RWbqA8W8CVpI,,,space,1,0.4167,0,43,43,21,1,X,space,,,,,,,,,,,,,,
,,,,,,,,,,,,,,,,WRO81,001,,2023-12-11_14h21.49.605,Trial go no go,2020.2.10,MacIntel,60,IwAR1bTyDSHG7yZt3pEUVRaYGabdFDzI1kK7QKxBFTaedbp8_RWbqA8W8CVpI,,,space,1,0.3485,0,44,44,7,1,X,space,,,,,,,,,,,,,,
,,,,,,,,,,,,,,,,WRO81,001,,2023-12-11_14h21.49.605,Trial go no go,2020.2.10,MacIntel,60,IwAR1bTyDSHG7yZt3pEUVRaYGabdFDzI1kK7QKxBFTaedbp8_RWbqA8W8CVpI,,,space,1,0.3208,0,45,45,15,1,X,space,,,,,,,,,,,,,,
,,,,,,,,,,,,,,,,WRO81,001,,2023-12-11_14h21.49.605,Trial go no go,2020.2.10,MacIntel,60,IwAR1bTyDSHG7yZt3pEUVRaYGabdFDzI1kK7QKxBFTaedbp8_RWbqA8W8CVpI,,,space,1,0.3317,0,46,46,20,1,X,space,,,,,,,,,,,,,,
,,,,,,,,,,,,,,,,WRO81,001,,2023-12-11_14h21.49.605,Trial go no go,2020.2.10,MacIntel,60,IwAR1bTyDSHG7yZt3pEUVRaYGabdFDzI1kK7QKxBFTaedbp8_RWbqA8W8CVpI,,,,1,,0,47,47,39,1,M,none,,,,,,,,,,,,,,
,,,,,,,,,,,,,,,,WRO81,001,,2023-12-11_14h21.49.605,Trial go no go,2020.2.10,MacIntel,60,IwAR1bTyDSHG7yZt3pEUVRaYGabdFDzI1kK7QKxBFTaedbp8_RWbqA8W8CVpI,,,space,1,0.2839,0,48,48,10,1,X,space,,,,,,,,,,,,,,
,,,,,,,,,,,,,,,,WRO81,001,,2023-12-11_14h21.49.605,Trial go no go,2020.2.10,MacIntel,60,IwAR1bTyDSHG7yZt3pEUVRaYGabdFDzI1kK7QKxBFTaedbp8_RWbqA8W8CVpI,,,space,1,0.4492,0,49,49,32,1,X,space,,,,,,,,,,,,,,
,,,,,,,,,,,,,,,,WRO81,001,,2023-12-11_14h21.49.605,Trial go no go,2020.2.10,MacIntel,60,IwAR1bTyDSHG7yZt3pEUVRaYGabdFDzI1kK7QKxBFTaedbp8_RWbqA8W8CVpI,,,,,,,,,,,,,z,10.9987,,1,0,0,0,39,1,X,none,,,
,,,,,,,,,,,,,,,,WRO81,001,,2023-12-11_14h21.49.605,Trial go no go,2020.2.10,MacIntel,60,IwAR1bTyDSHG7yZt3pEUVRaYGabdFDzI1kK7QKxBFTaedbp8_RWbqA8W8CVpI,,,,,,,,,,,,,,,space,1,0,1,1,20,1,E,space,0.4139,,
,,,,,,,,,,,,,,,,WRO81,001,,2023-12-11_14h21.49.605,Trial go no go,2020.2.10,MacIntel,60,IwAR1bTyDSHG7yZt3pEUVRaYGabdFDzI1kK7QKxBFTaedbp8_RWbqA8W8CVpI,,,,,,,,,,,,,,,space,1,0,2,2,35,1,N,space,0.3866,,
,,,,,,,,,,,,,,,,WRO81,001,,2023-12-11_14h21.49.605,Trial go no go,2020.2.10,MacIntel,60,IwAR1bTyDSHG7yZt3pEUVRaYGabdFDzI1kK7QKxBFTaedbp8_RWbqA8W8CVpI,,,,,,,,,,,,,,,space,1,0,3,3,17,1,M,space,0.345,,
,,,,,,,,,,,,,,,,WRO81,001,,2023-12-11_14h21.49.605,Trial go no go,2020.2.10,MacIntel,60,IwAR1bTyDSHG7yZt3pEUVRaYGabdFDzI1kK7QKxBFTaedbp8_RWbqA8W8CVpI,,,,,,,,,,,,,,,space,1,0,4,4,16,1,N,space,0.35,,
,,,,,,,,,,,,,,,,WRO81,001,,2023-12-11_14h21.49.605,Trial go no go,2020.2.10,MacIntel,60,IwAR1bTyDSHG7yZt3pEUVRaYGabdFDzI1kK7QKxBFTaedbp8_RWbqA8W8CVpI,,,,,,,,,,,,,,,space,1,0,5,5,40,1,R,space,0.3924,,
,,,,,,,,,,,,,,,,WRO81,001,,2023-12-11_14h21.49.605,Trial go no go,2020.2.10,MacIntel,60,IwAR1bTyDSHG7yZt3pEUVRaYGabdFDzI1kK7QKxBFTaedbp8_RWbqA8W8CVpI,,,,,,,,,,,,,,,space,1,0,6,6,12,1,L,space,0.3841,,
,,,,,,,,,,,,,,,,WRO81,001,,2023-12-11_14h21.49.605,Trial go no go,2020.2.10,MacIntel,60,IwAR1bTyDSHG7yZt3pEUVRaYGabdFDzI1kK7QKxBFTaedbp8_RWbqA8W8CVpI,,,,,,,,,,,,,,,space,1,0,7,7,22,1,T,space,0.401,,
,,,,,,,,,,,,,,,,WRO81,001,,2023-12-11_14h21.49.605,Trial go no go,2020.2.10,MacIntel,60,IwAR1bTyDSHG7yZt3pEUVRaYGabdFDzI1kK7QKxBFTaedbp8_RWbqA8W8CVpI,,,,,,,,,,,,,,,space,1,0,8,8,8,1,F,space,0.4138,,
,,,,,,,,,,,,,,,,WRO81,001,,2023-12-11_14h21.49.605,Trial go no go,2020.2.10,MacIntel,60,IwAR1bTyDSHG7yZt3pEUVRaYGabdFDzI1kK7QKxBFTaedbp8_RWbqA8W8CVpI,,,,,,,,,,,,,,,space,1,0,9,9,1,1,E,space,0.4018,,
,,,,,,,,,,,,,,,,WRO81,001,,2023-12-11_14h21.49.605,Trial go no go,2020.2.10,MacIntel,60,IwAR1bTyDSHG7yZt3pEUVRaYGabdFDzI1kK7QKxBFTaedbp8_RWbqA8W8CVpI,,,,,,,,,,,,,,,space,1,0,10,10,13,1,Z,space,0.4273,,
,,,,,,,,,,,,,,,,WRO81,001,,2023-12-11_14h21.49.605,Trial go no go,2020.2.10,MacIntel,60,IwAR1bTyDSHG7yZt3pEUVRaYGabdFDzI1kK7QKxBFTaedbp8_RWbqA8W8CVpI,,,,,,,,,,,,,,,,1,0,11,11,34,1,X,none,,,
,,,,,,,,,,,,,,,,WRO81,001,,2023-12-11_14h21.49.605,Trial go no go,2020.2.10,MacIntel,60,IwAR1bTyDSHG7yZt3pEUVRaYGabdFDzI1kK7QKxBFTaedbp8_RWbqA8W8CVpI,,,,,,,,,,,,,,,space,1,0,12,12,11,1,K,space,0.2843,,
,,,,,,,,,,,,,,,,WRO81,001,,2023-12-11_14h21.49.605,Trial go no go,2020.2.10,MacIntel,60,IwAR1bTyDSHG7yZt3pEUVRaYGabdFDzI1kK7QKxBFTaedbp8_RWbqA8W8CVpI,,,,,,,,,,,,,,,space,1,0,13,13,2,1,R,space,0.3273,,
,,,,,,,,,,,,,,,,WRO81,001,,2023-12-11_14h21.49.605,Trial go no go,2020.2.10,MacIntel,60,IwAR1bTyDSHG7yZt3pEUVRaYGabdFDzI1kK7QKxBFTaedbp8_RWbqA8W8CVpI,,,,,,,,,,,,,,,space,0,0,14,14,9,1,X,none,0.331,,
,,,,,,,,,,,,,,,,WRO81,001,,2023-12-11_14h21.49.605,Trial go no go,2020.2.10,MacIntel,60,IwAR1bTyDSHG7yZt3pEUVRaYGabdFDzI1kK7QKxBFTaedbp8_RWbqA8W8CVpI,,,,,,,,,,,,,,,space,1,0,15,15,46,1,F,space,0.3688,,
,,,,,,,,,,,,,,,,WRO81,001,,2023-12-11_14h21.49.605,Trial go no go,2020.2.10,MacIntel,60,IwAR1bTyDSHG7yZt3pEUVRaYGabdFDzI1kK7QKxBFTaedbp8_RWbqA8W8CVpI,,,,,,,,,,,,,,,,1,0,16,16,29,1,X,none,,,
,,,,,,,,,,,,,,,,WRO81,001,,2023-12-11_14h21.49.605,Trial go no go,2020.2.10,MacIntel,60,IwAR1bTyDSHG7yZt3pEUVRaYGabdFDzI1kK7QKxBFTaedbp8_RWbqA8W8CVpI,,,,,,,,,,,,,,,space,1,0,17,17,28,1,H,space,0.3329,,
,,,,,,,,,,,,,,,,WRO81,001,,2023-12-11_14h21.49.605,Trial go no go,2020.2.10,MacIntel,60,IwAR1bTyDSHG7yZt3pEUVRaYGabdFDzI1kK7QKxBFTaedbp8_RWbqA8W8CVpI,,,,,,,,,,,,,,,space,1,0,18,18,32,1,Z,space,0.3671,,
,,,,,,,,,,,,,,,,WRO81,001,,2023-12-11_14h21.49.605,Trial go no go,2020.2.10,MacIntel,60,IwAR1bTyDSHG7yZt3pEUVRaYGabdFDzI1kK7QKxBFTaedbp8_RWbqA8W8CVpI,,,,,,,,,,,,,,,space,1,0,19,19,10,1,H,space,0.4141,,
,,,,,,,,,,,,,,,,WRO81,001,,2023-12-11_14h21.49.605,Trial go no go,2020.2.10,MacIntel,60,IwAR1bTyDSHG7yZt3pEUVRaYGabdFDzI1kK7QKxBFTaedbp8_RWbqA8W8CVpI,,,,,,,,,,,,,,,space,1,0,20,20,21,1,R,space,0.3982,,
,,,,,,,,,,,,,,,,WRO81,001,,2023-12-11_14h21.49.605,Trial go no go,2020.2.10,MacIntel,60,IwAR1bTyDSHG7yZt3pEUVRaYGabdFDzI1kK7QKxBFTaedbp8_RWbqA8W8CVpI,,,,,,,,,,,,,,,space,1,0,21,21,38,1,E,space,0.4129,,
,,,,,,,,,,,,,,,,WRO81,001,,2023-12-11_14h21.49.605,Trial go no go,2020.2.10,MacIntel,60,IwAR1bTyDSHG7yZt3pEUVRaYGabdFDzI1kK7QKxBFTaedbp8_RWbqA8W8CVpI,,,,,,,,,,,,,,,space,1,0,22,22,0,1,W,space,0.414,,
,,,,,,,,,,,,,,,,WRO81,001,,2023-12-11_14h21.49.605,Trial go no go,2020.2.10,MacIntel,60,IwAR1bTyDSHG7yZt3pEUVRaYGabdFDzI1kK7QKxBFTaedbp8_RWbqA8W8CVpI,,,,,,,,,,,,,,,space,1,0,23,23,27,1,F,space,0.4131,,
,,,,,,,,,,,,,,,,WRO81,001,,2023-12-11_14h21.49.605,Trial go no go,2020.2.10,MacIntel,60,IwAR1bTyDSHG7yZt3pEUVRaYGabdFDzI1kK7QKxBFTaedbp8_RWbqA8W8CVpI,,,,,,,,,,,,,,,space,1,0,24,24,3,1,T,space,0.4187,,
,,,,,,,,,,,,,,,,WRO81,001,,2023-12-11_14h21.49.605,Trial go no go,2020.2.10,MacIntel,60,IwAR1bTyDSHG7yZt3pEUVRaYGabdFDzI1kK7QKxBFTaedbp8_RWbqA8W8CVpI,,,,,,,,,,,,,,,space,1,0,25,25,15,1,V,space,0.4619,,
,,,,,,,,,,,,,,,,WRO81,001,,2023-12-11_14h21.49.605,Trial go no go,2020.2.10,MacIntel,60,IwAR1bTyDSHG7yZt3pEUVRaYGabdFDzI1kK7QKxBFTaedbp8_RWbqA8W8CVpI,,,,,,,,,,,,,,,,1,0,26,26,19,1,X,none,,,
,,,,,,,,,,,,,,,,WRO81,001,,2023-12-11_14h21.49.605,Trial go no go,2020.2.10,MacIntel,60,IwAR1bTyDSHG7yZt3pEUVRaYGabdFDzI1kK7QKxBFTaedbp8_RWbqA8W8CVpI,,,,,,,,,,,,,,,space,1,0,27,27,45,1,A,space,0.3773,,
,,,,,,,,,,,,,,,,WRO81,001,,2023-12-11_14h21.49.605,Trial go no go,2020.2.10,MacIntel,60,IwAR1bTyDSHG7yZt3pEUVRaYGabdFDzI1kK7QKxBFTaedbp8_RWbqA8W8CVpI,,,,,,,,,,,,,,,,1,0,28,28,4,1,X,none,,,
,,,,,,,,,,,,,,,,WRO81,001,,2023-12-11_14h21.49.605,Trial go no go,2020.2.10,MacIntel,60,IwAR1bTyDSHG7yZt3pEUVRaYGabdFDzI1kK7QKxBFTaedbp8_RWbqA8W8CVpI,,,,,,,,,,,,,,,space,1,0,29,29,47,1,H,space,0.367,,
,,,,,,,,,,,,,,,,WRO81,001,,2023-12-11_14h21.49.605,Trial go no go,2020.2.10,MacIntel,60,IwAR1bTyDSHG7yZt3pEUVRaYGabdFDzI1kK7QKxBFTaedbp8_RWbqA8W8CVpI,,,,,,,,,,,,,,,space,1,0,30,30,30,1,K,space,0.3796,,
,,,,,,,,,,,,,,,,WRO81,001,,2023-12-11_14h21.49.605,Trial go no go,2020.2.10,MacIntel,60,IwAR1bTyDSHG7yZt3pEUVRaYGabdFDzI1kK7QKxBFTaedbp8_RWbqA8W8CVpI,,,,,,,,,,,,,,,space,1,0,31,31,18,1,W,space,0.3961,,
,,,,,,,,,,,,,,,,WRO81,001,,2023-12-11_14h21.49.605,Trial go no go,2020.2.10,MacIntel,60,IwAR1bTyDSHG7yZt3pEUVRaYGabdFDzI1kK7QKxBFTaedbp8_RWbqA8W8CVpI,,,,,,,,,,,,,,,space,1,0,32,32,26,1,A,space,0.4956,,
,,,,,,,,,,,,,,,,WRO81,001,,2023-12-11_14h21.49.605,Trial go no go,2020.2.10,MacIntel,60,IwAR1bTyDSHG7yZt3pEUVRaYGabdFDzI1kK7QKxBFTaedbp8_RWbqA8W8CVpI,,,,,,,,,,,,,,,space,1,0,33,33,37,1,W,space,0.3972,,
,,,,,,,,,,,,,,,,WRO81,001,,2023-12-11_14h21.49.605,Trial go no go,2020.2.10,MacIntel,60,IwAR1bTyDSHG7yZt3pEUVRaYGabdFDzI1kK7QKxBFTaedbp8_RWbqA8W8CVpI,,,,,,,,,,,,,,,space,1,0,34,34,33,1,V,space,0.3788,,
,,,,,,,,,,,,,,,,WRO81,001,,2023-12-11_14h21.49.605,Trial go no go,2020.2.10,MacIntel,60,IwAR1bTyDSHG7yZt3pEUVRaYGabdFDzI1kK7QKxBFTaedbp8_RWbqA8W8CVpI,,,,,,,,,,,,,,,space,1,0,35,35,31,1,L,space,0.4662,,
,,,,,,,,,,,,,,,,WRO81,001,,2023-12-11_14h21.49.605,Trial go no go,2020.2.10,MacIntel,60,IwAR1bTyDSHG7yZt3pEUVRaYGabdFDzI1kK7QKxBFTaedbp8_RWbqA8W8CVpI,,,,,,,,,,,,,,,space,1,0,36,36,48,1,K,space,0.4175,,
,,,,,,,,,,,,,,,,WRO81,001,,2023-12-11_14h21.49.605,Trial go no go,2020.2.10,MacIntel,60,IwAR1bTyDSHG7yZt3pEUVRaYGabdFDzI1kK7QKxBFTaedbp8_RWbqA8W8CVpI,,,,,,,,,,,,,,,space,1,0,37,37,41,1,T,space,0.4136,,
,,,,,,,,,,,,,,,,WRO81,001,,2023-12-11_14h21.49.605,Trial go no go,2020.2.10,MacIntel,60,IwAR1bTyDSHG7yZt3pEUVRaYGabdFDzI1kK7QKxBFTaedbp8_RWbqA8W8CVpI,,,,,,,,,,,,,,,,1,0,38,38,24,1,X,none,,,
,,,,,,,,,,,,,,,,WRO81,001,,2023-12-11_14h21.49.605,Trial go no go,2020.2.10,MacIntel,60,IwAR1bTyDSHG7yZt3pEUVRaYGabdFDzI1kK7QKxBFTaedbp8_RWbqA8W8CVpI,,,,,,,,,,,,,,,space,1,0,39,39,42,1,Y,space,0.2807,,
,,,,,,,,,,,,,,,,WRO81,001,,2023-12-11_14h21.49.605,Trial go no go,2020.2.10,MacIntel,60,IwAR1bTyDSHG7yZt3pEUVRaYGabdFDzI1kK7QKxBFTaedbp8_RWbqA8W8CVpI,,,,,,,,,,,,,,,,1,0,40,40,49,1,X,none,,,
,,,,,,,,,,,,,,,,WRO81,001,,2023-12-11_14h21.49.605,Trial go no go,2020.2.10,MacIntel,60,IwAR1bTyDSHG7yZt3pEUVRaYGabdFDzI1kK7QKxBFTaedbp8_RWbqA8W8CVpI,,,,,,,,,,,,,,,space,0,0,41,41,44,1,X,none,0.3001,,
,,,,,,,,,,,,,,,,WRO81,001,,2023-12-11_14h21.49.605,Trial go no go,2020.2.10,MacIntel,60,IwAR1bTyDSHG7yZt3pEUVRaYGabdFDzI1kK7QKxBFTaedbp8_RWbqA8W8CVpI,,,,,,,,,,,,,,,space,1,0,42,42,6,1,I,space,0.3814,,
,,,,,,,,,,,,,,,,WRO81,001,,2023-12-11_14h21.49.605,Trial go no go,2020.2.10,MacIntel,60,IwAR1bTyDSHG7yZt3pEUVRaYGabdFDzI1kK7QKxBFTaedbp8_RWbqA8W8CVpI,,,,,,,,,,,,,,,space,1,0,43,43,7,1,A,space,0.479,,
,,,,,,,,,,,,,,,,WRO81,001,,2023-12-11_14h21.49.605,Trial go no go,2020.2.10,MacIntel,60,IwAR1bTyDSHG7yZt3pEUVRaYGabdFDzI1kK7QKxBFTaedbp8_RWbqA8W8CVpI,,,,,,,,,,,,,,,space,1,0,44,44,25,1,I,space,0.6034,,
,,,,,,,,,,,,,,,,WRO81,001,,2023-12-11_14h21.49.605,Trial go no go,2020.2.10,MacIntel,60,IwAR1bTyDSHG7yZt3pEUVRaYGabdFDzI1kK7QKxBFTaedbp8_RWbqA8W8CVpI,,,,,,,,,,,,,,,space,1,0,45,45,36,1,M,space,0.4477,,
,,,,,,,,,,,,,,,,WRO81,001,,2023-12-11_14h21.49.605,Trial go no go,2020.2.10,MacIntel,60,IwAR1bTyDSHG7yZt3pEUVRaYGabdFDzI1kK7QKxBFTaedbp8_RWbqA8W8CVpI,,,,,,,,,,,,,,,,1,0,46,46,14,1,X,none,,,
,,,,,,,,,,,,,,,,WRO81,001,,2023-12-11_14h21.49.605,Trial go no go,2020.2.10,MacIntel,60,IwAR1bTyDSHG7yZt3pEUVRaYGabdFDzI1kK7QKxBFTaedbp8_RWbqA8W8CVpI,,,,,,,,,,,,,,,space,1,0,47,47,43,1,I,space,0.3958,,
,,,,,,,,,,,,,,,,WRO81,001,,2023-12-11_14h21.49.605,Trial go no go,2020.2.10,MacIntel,60,IwAR1bTyDSHG7yZt3pEUVRaYGabdFDzI1kK7QKxBFTaedbp8_RWbqA8W8CVpI,,,,,,,,,,,,,,,space,1,0,48,48,5,1,Y,space,0.4962,,
,,,,,,,,,,,,,,,,WRO81,001,,2023-12-11_14h21.49.605,Trial go no go,2020.2.10,MacIntel,60,IwAR1bTyDSHG7yZt3pEUVRaYGabdFDzI1kK7QKxBFTaedbp8_RWbqA8W8CVpI,,,,,,,,,,,,,,,space,1,0,49,49,23,1,Y,space,0.7185,,
,,,,,,,,,,,,,,,,WRO81,001,,2023-12-11_14h21.49.605,Trial go no go,2020.2.10,MacIntel,60,IwAR1bTyDSHG7yZt3pEUVRaYGabdFDzI1kK7QKxBFTaedbp8_RWbqA8W8CVpI,,,,,,,,,,,,,,,,,,,,,,,,,space,26.8669
