resp_Welcome.keys,resp_Welcome.rt,resp_Instr_Intro.keys,resp_Instr_Intro.rt,resp_Instr_Prac1.keys,resp_Instr_Prac1.rt,resp_trial_Prac1.keys,resp_trial_Prac1.corr,resp_trial_Prac1.rt,prac_trials.thisRepN,prac_trials.thisTrialN,prac_trials.thisN,prac_trials.thisIndex,prac_trials.ran,stimulus_prac1,corrAns_prac1,participant,session,indywidualny kod,date,expName,psychopyVersion,OS,frameRate,resp_Instr_Test1.keys,resp_Instr_Test1.rt,resp_trial_Test1.keys,resp_trial_Test1.corr,test1trial.thisRepN,test1trial.thisTrialN,test1trial.thisN,test1trial.thisIndex,test1trial.ran,stimulus_test1,corrAns_test1,resp_trial_Test1.rt,resp_Instr_Test2.keys,resp_Instr_Test2.rt,key_resp_Test2.keys,key_resp_Test2.corr,test2trial.thisRepN,test2trial.thisTrialN,test2trial.thisN,test2trial.thisIndex,test2trial.ran,stimulus_test2,corrAns_test2,key_resp_Test2.rt,resp_theEnd.keys,resp_theEnd.rt
space,10.9633,space,27.5675,space,18.283,space,1,0.6848,0,0,0,7,1,X,space,WRO89,001,WRO89,2024-02-02_14h30.07.015,Trial go no go,2020.2.10,Win32,60,,,,,,,,,,,,,,,,,,,,,,,,,,
,,,,,,,1,,0,1,1,4,1,W,none,WRO89,001,WRO89,2024-02-02_14h30.07.015,Trial go no go,2020.2.10,Win32,60,,,,,,,,,,,,,,,,,,,,,,,,,,
,,,,,,space,1,0.4839,0,2,2,13,1,X,space,WRO89,001,WRO89,2024-02-02_14h30.07.015,Trial go no go,2020.2.10,Win32,60,,,,,,,,,,,,,,,,,,,,,,,,,,
,,,,,,space,1,0.4654,0,3,3,5,1,X,space,WRO89,001,WRO89,2024-02-02_14h30.07.015,Trial go no go,2020.2.10,Win32,60,,,,,,,,,,,,,,,,,,,,,,,,,,
,,,,,,,1,,0,4,4,14,1,K,none,WRO89,001,WRO89,2024-02-02_14h30.07.015,Trial go no go,2020.2.10,Win32,60,,,,,,,,,,,,,,,,,,,,,,,,,,
,,,,,,space,1,0.3976,0,5,5,1,1,X,space,WRO89,001,WRO89,2024-02-02_14h30.07.015,Trial go no go,2020.2.10,Win32,60,,,,,,,,,,,,,,,,,,,,,,,,,,
,,,,,,space,1,0.3505,0,6,6,0,1,X,space,WRO89,001,WRO89,2024-02-02_14h30.07.015,Trial go no go,2020.2.10,Win32,60,,,,,,,,,,,,,,,,,,,,,,,,,,
,,,,,,,1,,0,7,7,9,1,V,none,WRO89,001,WRO89,2024-02-02_14h30.07.015,Trial go no go,2020.2.10,Win32,60,,,,,,,,,,,,,,,,,,,,,,,,,,
,,,,,,space,1,0.3797,0,8,8,6,1,X,space,WRO89,001,WRO89,2024-02-02_14h30.07.015,Trial go no go,2020.2.10,Win32,60,,,,,,,,,,,,,,,,,,,,,,,,,,
,,,,,,space,1,0.4419,0,9,9,12,1,X,space,WRO89,001,WRO89,2024-02-02_14h30.07.015,Trial go no go,2020.2.10,Win32,60,,,,,,,,,,,,,,,,,,,,,,,,,,
,,,,,,space,1,0.3856,0,10,10,8,1,X,space,WRO89,001,WRO89,2024-02-02_14h30.07.015,Trial go no go,2020.2.10,Win32,60,,,,,,,,,,,,,,,,,,,,,,,,,,
,,,,,,space,1,0.3763,0,11,11,11,1,X,space,WRO89,001,WRO89,2024-02-02_14h30.07.015,Trial go no go,2020.2.10,Win32,60,,,,,,,,,,,,,,,,,,,,,,,,,,
,,,,,,space,1,0.3284,0,12,12,2,1,X,space,WRO89,001,WRO89,2024-02-02_14h30.07.015,Trial go no go,2020.2.10,Win32,60,,,,,,,,,,,,,,,,,,,,,,,,,,
,,,,,,space,1,0.3314,0,13,13,10,1,X,space,WRO89,001,WRO89,2024-02-02_14h30.07.015,Trial go no go,2020.2.10,Win32,60,,,,,,,,,,,,,,,,,,,,,,,,,,
,,,,,,space,1,0.4154,0,14,14,3,1,X,space,WRO89,001,WRO89,2024-02-02_14h30.07.015,Trial go no go,2020.2.10,Win32,60,,,,,,,,,,,,,,,,,,,,,,,,,,
,,,,,,,,,,,,,,,,WRO89,001,WRO89,2024-02-02_14h30.07.015,Trial go no go,2020.2.10,Win32,60,space,10.8728,,1,0,0,0,14,1,Y,none,,,,,,,,,,,,,,,
,,,,,,,,,,,,,,,,WRO89,001,WRO89,2024-02-02_14h30.07.015,Trial go no go,2020.2.10,Win32,60,,,space,1,0,1,1,28,1,X,space,0.3262,,,,,,,,,,,,,,
,,,,,,,,,,,,,,,,WRO89,001,WRO89,2024-02-02_14h30.07.015,Trial go no go,2020.2.10,Win32,60,,,space,1,0,2,2,38,1,X,space,0.3208,,,,,,,,,,,,,,
,,,,,,,,,,,,,,,,WRO89,001,WRO89,2024-02-02_14h30.07.015,Trial go no go,2020.2.10,Win32,60,,,space,1,0,3,3,22,1,X,space,0.3037,,,,,,,,,,,,,,
,,,,,,,,,,,,,,,,WRO89,001,WRO89,2024-02-02_14h30.07.015,Trial go no go,2020.2.10,Win32,60,,,space,1,0,4,4,41,1,X,space,0.2643,,,,,,,,,,,,,,
,,,,,,,,,,,,,,,,WRO89,001,WRO89,2024-02-02_14h30.07.015,Trial go no go,2020.2.10,Win32,60,,,space,1,0,5,5,47,1,X,space,0.343,,,,,,,,,,,,,,
,,,,,,,,,,,,,,,,WRO89,001,WRO89,2024-02-02_14h30.07.015,Trial go no go,2020.2.10,Win32,60,,,space,1,0,6,6,25,1,X,space,0.2496,,,,,,,,,,,,,,
,,,,,,,,,,,,,,,,WRO89,001,WRO89,2024-02-02_14h30.07.015,Trial go no go,2020.2.10,Win32,60,,,space,1,0,7,7,30,1,X,space,0.2366,,,,,,,,,,,,,,
,,,,,,,,,,,,,,,,WRO89,001,WRO89,2024-02-02_14h30.07.015,Trial go no go,2020.2.10,Win32,60,,,space,1,0,8,8,23,1,X,space,0.2565,,,,,,,,,,,,,,
,,,,,,,,,,,,,,,,WRO89,001,WRO89,2024-02-02_14h30.07.015,Trial go no go,2020.2.10,Win32,60,,,space,1,0,9,9,1,1,X,space,0.2716,,,,,,,,,,,,,,
,,,,,,,,,,,,,,,,WRO89,001,WRO89,2024-02-02_14h30.07.015,Trial go no go,2020.2.10,Win32,60,,,space,0,0,10,10,34,1,N,none,0.2488,,,,,,,,,,,,,,
,,,,,,,,,,,,,,,,WRO89,001,WRO89,2024-02-02_14h30.07.015,Trial go no go,2020.2.10,Win32,60,,,space,1,0,11,11,2,1,X,space,0.482,,,,,,,,,,,,,,
,,,,,,,,,,,,,,,,WRO89,001,WRO89,2024-02-02_14h30.07.015,Trial go no go,2020.2.10,Win32,60,,,,1,0,12,12,19,1,K,none,,,,,,,,,,,,,,,
,,,,,,,,,,,,,,,,WRO89,001,WRO89,2024-02-02_14h30.07.015,Trial go no go,2020.2.10,Win32,60,,,space,1,0,13,13,0,1,X,space,0.3964,,,,,,,,,,,,,,
,,,,,,,,,,,,,,,,WRO89,001,WRO89,2024-02-02_14h30.07.015,Trial go no go,2020.2.10,Win32,60,,,,1,0,14,14,49,1,E,none,,,,,,,,,,,,,,,
,,,,,,,,,,,,,,,,WRO89,001,WRO89,2024-02-02_14h30.07.015,Trial go no go,2020.2.10,Win32,60,,,space,1,0,15,15,5,1,X,space,0.3181,,,,,,,,,,,,,,
,,,,,,,,,,,,,,,,WRO89,001,WRO89,2024-02-02_14h30.07.015,Trial go no go,2020.2.10,Win32,60,,,space,1,0,16,16,27,1,X,space,0.3971,,,,,,,,,,,,,,
,,,,,,,,,,,,,,,,WRO89,001,WRO89,2024-02-02_14h30.07.015,Trial go no go,2020.2.10,Win32,60,,,space,1,0,17,17,13,1,X,space,0.3625,,,,,,,,,,,,,,
,,,,,,,,,,,,,,,,WRO89,001,WRO89,2024-02-02_14h30.07.015,Trial go no go,2020.2.10,Win32,60,,,space,1,0,18,18,10,1,X,space,0.3155,,,,,,,,,,,,,,
,,,,,,,,,,,,,,,,WRO89,001,WRO89,2024-02-02_14h30.07.015,Trial go no go,2020.2.10,Win32,60,,,space,1,0,19,19,45,1,X,space,0.2978,,,,,,,,,,,,,,
,,,,,,,,,,,,,,,,WRO89,001,WRO89,2024-02-02_14h30.07.015,Trial go no go,2020.2.10,Win32,60,,,space,1,0,20,20,7,1,X,space,0.2994,,,,,,,,,,,,,,
,,,,,,,,,,,,,,,,WRO89,001,WRO89,2024-02-02_14h30.07.015,Trial go no go,2020.2.10,Win32,60,,,,1,0,21,21,44,1,F,none,,,,,,,,,,,,,,,
,,,,,,,,,,,,,,,,WRO89,001,WRO89,2024-02-02_14h30.07.015,Trial go no go,2020.2.10,Win32,60,,,space,1,0,22,22,17,1,X,space,0.3387,,,,,,,,,,,,,,
,,,,,,,,,,,,,,,,WRO89,001,WRO89,2024-02-02_14h30.07.015,Trial go no go,2020.2.10,Win32,60,,,space,1,0,23,23,37,1,X,space,0.3418,,,,,,,,,,,,,,
,,,,,,,,,,,,,,,,WRO89,001,WRO89,2024-02-02_14h30.07.015,Trial go no go,2020.2.10,Win32,60,,,space,1,0,24,24,32,1,X,space,0.3072,,,,,,,,,,,,,,
,,,,,,,,,,,,,,,,WRO89,001,WRO89,2024-02-02_14h30.07.015,Trial go no go,2020.2.10,Win32,60,,,space,1,0,25,25,36,1,X,space,0.2993,,,,,,,,,,,,,,
,,,,,,,,,,,,,,,,WRO89,001,WRO89,2024-02-02_14h30.07.015,Trial go no go,2020.2.10,Win32,60,,,space,1,0,26,26,31,1,X,space,0.2914,,,,,,,,,,,,,,
,,,,,,,,,,,,,,,,WRO89,001,WRO89,2024-02-02_14h30.07.015,Trial go no go,2020.2.10,Win32,60,,,space,1,0,27,27,43,1,X,space,0.2921,,,,,,,,,,,,,,
,,,,,,,,,,,,,,,,WRO89,001,WRO89,2024-02-02_14h30.07.015,Trial go no go,2020.2.10,Win32,60,,,space,1,0,28,28,8,1,X,space,0.2663,,,,,,,,,,,,,,
,,,,,,,,,,,,,,,,WRO89,001,WRO89,2024-02-02_14h30.07.015,Trial go no go,2020.2.10,Win32,60,,,space,1,0,29,29,26,1,X,space,0.2856,,,,,,,,,,,,,,
,,,,,,,,,,,,,,,,WRO89,001,WRO89,2024-02-02_14h30.07.015,Trial go no go,2020.2.10,Win32,60,,,space,1,0,30,30,21,1,X,space,0.3397,,,,,,,,,,,,,,
,,,,,,,,,,,,,,,,WRO89,001,WRO89,2024-02-02_14h30.07.015,Trial go no go,2020.2.10,Win32,60,,,space,1,0,31,31,18,1,X,space,0.3051,,,,,,,,,,,,,,
,,,,,,,,,,,,,,,,WRO89,001,WRO89,2024-02-02_14h30.07.015,Trial go no go,2020.2.10,Win32,60,,,space,1,0,32,32,35,1,X,space,0.265,,,,,,,,,,,,,,
,,,,,,,,,,,,,,,,WRO89,001,WRO89,2024-02-02_14h30.07.015,Trial go no go,2020.2.10,Win32,60,,,,1,0,33,33,39,1,M,none,,,,,,,,,,,,,,,
,,,,,,,,,,,,,,,,WRO89,001,WRO89,2024-02-02_14h30.07.015,Trial go no go,2020.2.10,Win32,60,,,space,1,0,34,34,40,1,X,space,0.429,,,,,,,,,,,,,,
,,,,,,,,,,,,,,,,WRO89,001,WRO89,2024-02-02_14h30.07.015,Trial go no go,2020.2.10,Win32,60,,,space,1,0,35,35,16,1,X,space,0.3139,,,,,,,,,,,,,,
,,,,,,,,,,,,,,,,WRO89,001,WRO89,2024-02-02_14h30.07.015,Trial go no go,2020.2.10,Win32,60,,,space,1,0,36,36,48,1,X,space,0.2853,,,,,,,,,,,,,,
,,,,,,,,,,,,,,,,WRO89,001,WRO89,2024-02-02_14h30.07.015,Trial go no go,2020.2.10,Win32,60,,,,1,0,37,37,9,1,W,none,,,,,,,,,,,,,,,
,,,,,,,,,,,,,,,,WRO89,001,WRO89,2024-02-02_14h30.07.015,Trial go no go,2020.2.10,Win32,60,,,,1,0,38,38,29,1,T,none,,,,,,,,,,,,,,,
,,,,,,,,,,,,,,,,WRO89,001,WRO89,2024-02-02_14h30.07.015,Trial go no go,2020.2.10,Win32,60,,,space,1,0,39,39,33,1,X,space,0.3139,,,,,,,,,,,,,,
,,,,,,,,,,,,,,,,WRO89,001,WRO89,2024-02-02_14h30.07.015,Trial go no go,2020.2.10,Win32,60,,,space,1,0,40,40,3,1,X,space,0.242,,,,,,,,,,,,,,
,,,,,,,,,,,,,,,,WRO89,001,WRO89,2024-02-02_14h30.07.015,Trial go no go,2020.2.10,Win32,60,,,space,1,0,41,41,11,1,X,space,0.2792,,,,,,,,,,,,,,
,,,,,,,,,,,,,,,,WRO89,001,WRO89,2024-02-02_14h30.07.015,Trial go no go,2020.2.10,Win32,60,,,space,1,0,42,42,15,1,X,space,0.2648,,,,,,,,,,,,,,
,,,,,,,,,,,,,,,,WRO89,001,WRO89,2024-02-02_14h30.07.015,Trial go no go,2020.2.10,Win32,60,,,space,1,0,43,43,42,1,X,space,0.2475,,,,,,,,,,,,,,
,,,,,,,,,,,,,,,,WRO89,001,WRO89,2024-02-02_14h30.07.015,Trial go no go,2020.2.10,Win32,60,,,space,0,0,44,44,4,1,V,none,0.2356,,,,,,,,,,,,,,
,,,,,,,,,,,,,,,,WRO89,001,WRO89,2024-02-02_14h30.07.015,Trial go no go,2020.2.10,Win32,60,,,,1,0,45,45,24,1,H,none,,,,,,,,,,,,,,,
,,,,,,,,,,,,,,,,WRO89,001,WRO89,2024-02-02_14h30.07.015,Trial go no go,2020.2.10,Win32,60,,,space,1,0,46,46,12,1,X,space,0.3861,,,,,,,,,,,,,,
,,,,,,,,,,,,,,,,WRO89,001,WRO89,2024-02-02_14h30.07.015,Trial go no go,2020.2.10,Win32,60,,,space,1,0,47,47,20,1,X,space,0.2975,,,,,,,,,,,,,,
,,,,,,,,,,,,,,,,WRO89,001,WRO89,2024-02-02_14h30.07.015,Trial go no go,2020.2.10,Win32,60,,,space,1,0,48,48,46,1,X,space,0.2821,,,,,,,,,,,,,,
,,,,,,,,,,,,,,,,WRO89,001,WRO89,2024-02-02_14h30.07.015,Trial go no go,2020.2.10,Win32,60,,,space,1,0,49,49,6,1,X,space,0.2758,,,,,,,,,,,,,,
,,,,,,,,,,,,,,,,WRO89,001,WRO89,2024-02-02_14h30.07.015,Trial go no go,2020.2.10,Win32,60,,,,,,,,,,,,,z,21.1649,,0,0,0,0,38,1,E,space,,,
,,,,,,,,,,,,,,,,WRO89,001,WRO89,2024-02-02_14h30.07.015,Trial go no go,2020.2.10,Win32,60,,,,,,,,,,,,,,,space,1,0,1,1,27,1,F,space,0.3904,,
,,,,,,,,,,,,,,,,WRO89,001,WRO89,2024-02-02_14h30.07.015,Trial go no go,2020.2.10,Win32,60,,,,,,,,,,,,,,,space,1,0,2,2,28,1,H,space,0.2599,,
,,,,,,,,,,,,,,,,WRO89,001,WRO89,2024-02-02_14h30.07.015,Trial go no go,2020.2.10,Win32,60,,,,,,,,,,,,,,,space,0,0,3,3,39,1,X,none,0.2717,,
,,,,,,,,,,,,,,,,WRO89,001,WRO89,2024-02-02_14h30.07.015,Trial go no go,2020.2.10,Win32,60,,,,,,,,,,,,,,,,1,0,4,4,34,1,X,none,,,
,,,,,,,,,,,,,,,,WRO89,001,WRO89,2024-02-02_14h30.07.015,Trial go no go,2020.2.10,Win32,60,,,,,,,,,,,,,,,space,1,0,5,5,18,1,W,space,0.4356,,
,,,,,,,,,,,,,,,,WRO89,001,WRO89,2024-02-02_14h30.07.015,Trial go no go,2020.2.10,Win32,60,,,,,,,,,,,,,,,space,1,0,6,6,10,1,H,space,0.4711,,
,,,,,,,,,,,,,,,,WRO89,001,WRO89,2024-02-02_14h30.07.015,Trial go no go,2020.2.10,Win32,60,,,,,,,,,,,,,,,space,1,0,7,7,33,1,V,space,0.3928,,
,,,,,,,,,,,,,,,,WRO89,001,WRO89,2024-02-02_14h30.07.015,Trial go no go,2020.2.10,Win32,60,,,,,,,,,,,,,,,space,1,0,8,8,36,1,M,space,0.3404,,
,,,,,,,,,,,,,,,,WRO89,001,WRO89,2024-02-02_14h30.07.015,Trial go no go,2020.2.10,Win32,60,,,,,,,,,,,,,,,,1,0,9,9,44,1,X,none,,,
,,,,,,,,,,,,,,,,WRO89,001,WRO89,2024-02-02_14h30.07.015,Trial go no go,2020.2.10,Win32,60,,,,,,,,,,,,,,,space,1,0,10,10,32,1,Z,space,0.2518,,
,,,,,,,,,,,,,,,,WRO89,001,WRO89,2024-02-02_14h30.07.015,Trial go no go,2020.2.10,Win32,60,,,,,,,,,,,,,,,space,1,0,11,11,42,1,Y,space,0.2828,,
,,,,,,,,,,,,,,,,WRO89,001,WRO89,2024-02-02_14h30.07.015,Trial go no go,2020.2.10,Win32,60,,,,,,,,,,,,,,,space,1,0,12,12,5,1,Y,space,0.3283,,
,,,,,,,,,,,,,,,,WRO89,001,WRO89,2024-02-02_14h30.07.015,Trial go no go,2020.2.10,Win32,60,,,,,,,,,,,,,,,space,0,0,13,13,49,1,X,none,0.3624,,
,,,,,,,,,,,,,,,,WRO89,001,WRO89,2024-02-02_14h30.07.015,Trial go no go,2020.2.10,Win32,60,,,,,,,,,,,,,,,space,1,0,14,14,8,1,F,space,0.4724,,
,,,,,,,,,,,,,,,,WRO89,001,WRO89,2024-02-02_14h30.07.015,Trial go no go,2020.2.10,Win32,60,,,,,,,,,,,,,,,space,1,0,15,15,16,1,N,space,0.3519,,
,,,,,,,,,,,,,,,,WRO89,001,WRO89,2024-02-02_14h30.07.015,Trial go no go,2020.2.10,Win32,60,,,,,,,,,,,,,,,space,1,0,16,16,31,1,L,space,0.3603,,
,,,,,,,,,,,,,,,,WRO89,001,WRO89,2024-02-02_14h30.07.015,Trial go no go,2020.2.10,Win32,60,,,,,,,,,,,,,,,space,1,0,17,17,35,1,N,space,0.4225,,
,,,,,,,,,,,,,,,,WRO89,001,WRO89,2024-02-02_14h30.07.015,Trial go no go,2020.2.10,Win32,60,,,,,,,,,,,,,,,space,1,0,18,18,23,1,Y,space,0.3232,,
,,,,,,,,,,,,,,,,WRO89,001,WRO89,2024-02-02_14h30.07.015,Trial go no go,2020.2.10,Win32,60,,,,,,,,,,,,,,,space,1,0,19,19,25,1,I,space,0.3766,,
,,,,,,,,,,,,,,,,WRO89,001,WRO89,2024-02-02_14h30.07.015,Trial go no go,2020.2.10,Win32,60,,,,,,,,,,,,,,,,1,0,20,20,4,1,X,none,,,
,,,,,,,,,,,,,,,,WRO89,001,WRO89,2024-02-02_14h30.07.015,Trial go no go,2020.2.10,Win32,60,,,,,,,,,,,,,,,space,1,0,21,21,1,1,E,space,0.2494,,
,,,,,,,,,,,,,,,,WRO89,001,WRO89,2024-02-02_14h30.07.015,Trial go no go,2020.2.10,Win32,60,,,,,,,,,,,,,,,space,1,0,22,22,45,1,A,space,0.355,,
,,,,,,,,,,,,,,,,WRO89,001,WRO89,2024-02-02_14h30.07.015,Trial go no go,2020.2.10,Win32,60,,,,,,,,,,,,,,,space,1,0,23,23,7,1,A,space,0.3156,,
,,,,,,,,,,,,,,,,WRO89,001,WRO89,2024-02-02_14h30.07.015,Trial go no go,2020.2.10,Win32,60,,,,,,,,,,,,,,,,1,0,24,24,19,1,X,none,,,
,,,,,,,,,,,,,,,,WRO89,001,WRO89,2024-02-02_14h30.07.015,Trial go no go,2020.2.10,Win32,60,,,,,,,,,,,,,,,space,1,0,25,25,17,1,M,space,0.2487,,
,,,,,,,,,,,,,,,,WRO89,001,WRO89,2024-02-02_14h30.07.015,Trial go no go,2020.2.10,Win32,60,,,,,,,,,,,,,,,space,1,0,26,26,46,1,F,space,0.3479,,
,,,,,,,,,,,,,,,,WRO89,001,WRO89,2024-02-02_14h30.07.015,Trial go no go,2020.2.10,Win32,60,,,,,,,,,,,,,,,space,1,0,27,27,11,1,K,space,0.2658,,
,,,,,,,,,,,,,,,,WRO89,001,WRO89,2024-02-02_14h30.07.015,Trial go no go,2020.2.10,Win32,60,,,,,,,,,,,,,,,space,1,0,28,28,48,1,K,space,0.2741,,
,,,,,,,,,,,,,,,,WRO89,001,WRO89,2024-02-02_14h30.07.015,Trial go no go,2020.2.10,Win32,60,,,,,,,,,,,,,,,space,1,0,29,29,13,1,Z,space,0.3093,,
,,,,,,,,,,,,,,,,WRO89,001,WRO89,2024-02-02_14h30.07.015,Trial go no go,2020.2.10,Win32,60,,,,,,,,,,,,,,,space,1,0,30,30,0,1,W,space,0.2912,,
,,,,,,,,,,,,,,,,WRO89,001,WRO89,2024-02-02_14h30.07.015,Trial go no go,2020.2.10,Win32,60,,,,,,,,,,,,,,,space,1,0,31,31,47,1,H,space,0.3312,,
,,,,,,,,,,,,,,,,WRO89,001,WRO89,2024-02-02_14h30.07.015,Trial go no go,2020.2.10,Win32,60,,,,,,,,,,,,,,,space,1,0,32,32,41,1,T,space,0.3154,,
,,,,,,,,,,,,,,,,WRO89,001,WRO89,2024-02-02_14h30.07.015,Trial go no go,2020.2.10,Win32,60,,,,,,,,,,,,,,,space,1,0,33,33,15,1,V,space,0.3047,,
,,,,,,,,,,,,,,,,WRO89,001,WRO89,2024-02-02_14h30.07.015,Trial go no go,2020.2.10,Win32,60,,,,,,,,,,,,,,,space,0,0,34,34,14,1,X,none,0.2929,,
,,,,,,,,,,,,,,,,WRO89,001,WRO89,2024-02-02_14h30.07.015,Trial go no go,2020.2.10,Win32,60,,,,,,,,,,,,,,,space,1,0,35,35,40,1,R,space,0.3484,,
,,,,,,,,,,,,,,,,WRO89,001,WRO89,2024-02-02_14h30.07.015,Trial go no go,2020.2.10,Win32,60,,,,,,,,,,,,,,,space,1,0,36,36,12,1,L,space,0.2413,,
,,,,,,,,,,,,,,,,WRO89,001,WRO89,2024-02-02_14h30.07.015,Trial go no go,2020.2.10,Win32,60,,,,,,,,,,,,,,,space,0,0,37,37,24,1,X,none,0.2705,,
,,,,,,,,,,,,,,,,WRO89,001,WRO89,2024-02-02_14h30.07.015,Trial go no go,2020.2.10,Win32,60,,,,,,,,,,,,,,,,0,0,38,38,20,1,E,space,,,
,,,,,,,,,,,,,,,,WRO89,001,WRO89,2024-02-02_14h30.07.015,Trial go no go,2020.2.10,Win32,60,,,,,,,,,,,,,,,space,1,0,39,39,30,1,K,space,0.2655,,
,,,,,,,,,,,,,,,,WRO89,001,WRO89,2024-02-02_14h30.07.015,Trial go no go,2020.2.10,Win32,60,,,,,,,,,,,,,,,space,1,0,40,40,6,1,I,space,0.3424,,
,,,,,,,,,,,,,,,,WRO89,001,WRO89,2024-02-02_14h30.07.015,Trial go no go,2020.2.10,Win32,60,,,,,,,,,,,,,,,space,1,0,41,41,37,1,W,space,0.2657,,
,,,,,,,,,,,,,,,,WRO89,001,WRO89,2024-02-02_14h30.07.015,Trial go no go,2020.2.10,Win32,60,,,,,,,,,,,,,,,space,1,0,42,42,2,1,R,space,0.3164,,
,,,,,,,,,,,,,,,,WRO89,001,WRO89,2024-02-02_14h30.07.015,Trial go no go,2020.2.10,Win32,60,,,,,,,,,,,,,,,space,1,0,43,43,26,1,A,space,0.336,,
,,,,,,,,,,,,,,,,WRO89,001,WRO89,2024-02-02_14h30.07.015,Trial go no go,2020.2.10,Win32,60,,,,,,,,,,,,,,,space,1,0,44,44,21,1,R,space,0.3752,,
,,,,,,,,,,,,,,,,WRO89,001,WRO89,2024-02-02_14h30.07.015,Trial go no go,2020.2.10,Win32,60,,,,,,,,,,,,,,,space,1,0,45,45,3,1,T,space,0.3569,,
,,,,,,,,,,,,,,,,WRO89,001,WRO89,2024-02-02_14h30.07.015,Trial go no go,2020.2.10,Win32,60,,,,,,,,,,,,,,,space,1,0,46,46,22,1,T,space,0.2625,,
,,,,,,,,,,,,,,,,WRO89,001,WRO89,2024-02-02_14h30.07.015,Trial go no go,2020.2.10,Win32,60,,,,,,,,,,,,,,,,1,0,47,47,29,1,X,none,,,
,,,,,,,,,,,,,,,,WRO89,001,WRO89,2024-02-02_14h30.07.015,Trial go no go,2020.2.10,Win32,60,,,,,,,,,,,,,,,space,1,0,48,48,43,1,I,space,0.1904,,
,,,,,,,,,,,,,,,,WRO89,001,WRO89,2024-02-02_14h30.07.015,Trial go no go,2020.2.10,Win32,60,,,,,,,,,,,,,,,,1,0,49,49,9,1,X,none,,,
,,,,,,,,,,,,,,,,WRO89,001,WRO89,2024-02-02_14h30.07.015,Trial go no go,2020.2.10,Win32,60,,,,,,,,,,,,,,,,,,,,,,,,,space,23.0295
