resp_Welcome.keys,resp_Welcome.rt,resp_Instr_Intro.keys,resp_Instr_Intro.rt,resp_Instr_Prac1.keys,resp_Instr_Prac1.rt,resp_trial_Prac1.keys,resp_trial_Prac1.corr,resp_trial_Prac1.rt,prac_trials.thisRepN,prac_trials.thisTrialN,prac_trials.thisN,prac_trials.thisIndex,prac_trials.ran,stimulus_prac1,corrAns_prac1,participant,session,indywidualny kod,date,expName,psychopyVersion,OS,frameRate,resp_Instr_Test1.keys,resp_Instr_Test1.rt,resp_trial_Test1.keys,resp_trial_Test1.corr,test1trial.thisRepN,test1trial.thisTrialN,test1trial.thisN,test1trial.thisIndex,test1trial.ran,stimulus_test1,corrAns_test1,resp_trial_Test1.rt,resp_Instr_Test2.keys,resp_Instr_Test2.rt,key_resp_Test2.keys,key_resp_Test2.corr,key_resp_Test2.rt,test2trial.thisRepN,test2trial.thisTrialN,test2trial.thisN,test2trial.thisIndex,test2trial.ran,stimulus_test2,corrAns_test2,resp_theEnd.keys,resp_theEnd.rt
space,8.6635,space,13.9716,space,13.1543,space,1,0.5971,0,0,0,3,1,X,space,WRO86,001,WRO86,2023-12-19_14h19.22.788,Trial go no go,2020.2.10,Win32,60,,,,,,,,,,,,,,,,,,,,,,,,,,
,,,,,,space,1,0.6325,0,1,1,1,1,X,space,WRO86,001,WRO86,2023-12-19_14h19.22.788,Trial go no go,2020.2.10,Win32,60,,,,,,,,,,,,,,,,,,,,,,,,,,
,,,,,,space,1,0.6301,0,2,2,6,1,X,space,WRO86,001,WRO86,2023-12-19_14h19.22.788,Trial go no go,2020.2.10,Win32,60,,,,,,,,,,,,,,,,,,,,,,,,,,
,,,,,,space,1,0.5386,0,3,3,10,1,X,space,WRO86,001,WRO86,2023-12-19_14h19.22.788,Trial go no go,2020.2.10,Win32,60,,,,,,,,,,,,,,,,,,,,,,,,,,
,,,,,,space,1,0.4332,0,4,4,13,1,X,space,WRO86,001,WRO86,2023-12-19_14h19.22.788,Trial go no go,2020.2.10,Win32,60,,,,,,,,,,,,,,,,,,,,,,,,,,
,,,,,,,1,,0,5,5,14,1,K,none,WRO86,001,WRO86,2023-12-19_14h19.22.788,Trial go no go,2020.2.10,Win32,60,,,,,,,,,,,,,,,,,,,,,,,,,,
,,,,,,space,1,0.6398,0,6,6,5,1,X,space,WRO86,001,WRO86,2023-12-19_14h19.22.788,Trial go no go,2020.2.10,Win32,60,,,,,,,,,,,,,,,,,,,,,,,,,,
,,,,,,,1,,0,7,7,9,1,V,none,WRO86,001,WRO86,2023-12-19_14h19.22.788,Trial go no go,2020.2.10,Win32,60,,,,,,,,,,,,,,,,,,,,,,,,,,
,,,,,,space,1,0.6489,0,8,8,2,1,X,space,WRO86,001,WRO86,2023-12-19_14h19.22.788,Trial go no go,2020.2.10,Win32,60,,,,,,,,,,,,,,,,,,,,,,,,,,
,,,,,,space,1,0.4997,0,9,9,12,1,X,space,WRO86,001,WRO86,2023-12-19_14h19.22.788,Trial go no go,2020.2.10,Win32,60,,,,,,,,,,,,,,,,,,,,,,,,,,
,,,,,,space,1,0.4852,0,10,10,8,1,X,space,WRO86,001,WRO86,2023-12-19_14h19.22.788,Trial go no go,2020.2.10,Win32,60,,,,,,,,,,,,,,,,,,,,,,,,,,
,,,,,,,1,,0,11,11,4,1,W,none,WRO86,001,WRO86,2023-12-19_14h19.22.788,Trial go no go,2020.2.10,Win32,60,,,,,,,,,,,,,,,,,,,,,,,,,,
,,,,,,space,1,0.4512,0,12,12,11,1,X,space,WRO86,001,WRO86,2023-12-19_14h19.22.788,Trial go no go,2020.2.10,Win32,60,,,,,,,,,,,,,,,,,,,,,,,,,,
,,,,,,space,1,0.3995,0,13,13,0,1,X,space,WRO86,001,WRO86,2023-12-19_14h19.22.788,Trial go no go,2020.2.10,Win32,60,,,,,,,,,,,,,,,,,,,,,,,,,,
,,,,,,space,1,0.5346,0,14,14,7,1,X,space,WRO86,001,WRO86,2023-12-19_14h19.22.788,Trial go no go,2020.2.10,Win32,60,,,,,,,,,,,,,,,,,,,,,,,,,,
,,,,,,,,,,,,,,,,WRO86,001,WRO86,2023-12-19_14h19.22.788,Trial go no go,2020.2.10,Win32,60,space,7.4671,,1,0,0,0,49,1,E,none,,,,,,,,,,,,,,,
,,,,,,,,,,,,,,,,WRO86,001,WRO86,2023-12-19_14h19.22.788,Trial go no go,2020.2.10,Win32,60,,,space,1,0,1,1,15,1,X,space,0.4181,,,,,,,,,,,,,,
,,,,,,,,,,,,,,,,WRO86,001,WRO86,2023-12-19_14h19.22.788,Trial go no go,2020.2.10,Win32,60,,,space,1,0,2,2,10,1,X,space,0.4854,,,,,,,,,,,,,,
,,,,,,,,,,,,,,,,WRO86,001,WRO86,2023-12-19_14h19.22.788,Trial go no go,2020.2.10,Win32,60,,,space,1,0,3,3,25,1,X,space,0.3854,,,,,,,,,,,,,,
,,,,,,,,,,,,,,,,WRO86,001,WRO86,2023-12-19_14h19.22.788,Trial go no go,2020.2.10,Win32,60,,,space,1,0,4,4,42,1,X,space,0.3635,,,,,,,,,,,,,,
,,,,,,,,,,,,,,,,WRO86,001,WRO86,2023-12-19_14h19.22.788,Trial go no go,2020.2.10,Win32,60,,,,1,0,5,5,9,1,W,none,,,,,,,,,,,,,,,
,,,,,,,,,,,,,,,,WRO86,001,WRO86,2023-12-19_14h19.22.788,Trial go no go,2020.2.10,Win32,60,,,space,1,0,6,6,27,1,X,space,0.4073,,,,,,,,,,,,,,
,,,,,,,,,,,,,,,,WRO86,001,WRO86,2023-12-19_14h19.22.788,Trial go no go,2020.2.10,Win32,60,,,space,1,0,7,7,21,1,X,space,0.4104,,,,,,,,,,,,,,
,,,,,,,,,,,,,,,,WRO86,001,WRO86,2023-12-19_14h19.22.788,Trial go no go,2020.2.10,Win32,60,,,space,1,0,8,8,36,1,X,space,0.3161,,,,,,,,,,,,,,
,,,,,,,,,,,,,,,,WRO86,001,WRO86,2023-12-19_14h19.22.788,Trial go no go,2020.2.10,Win32,60,,,space,1,0,9,9,45,1,X,space,0.3004,,,,,,,,,,,,,,
,,,,,,,,,,,,,,,,WRO86,001,WRO86,2023-12-19_14h19.22.788,Trial go no go,2020.2.10,Win32,60,,,,1,0,10,10,19,1,K,none,,,,,,,,,,,,,,,
,,,,,,,,,,,,,,,,WRO86,001,WRO86,2023-12-19_14h19.22.788,Trial go no go,2020.2.10,Win32,60,,,space,1,0,11,11,23,1,X,space,0.4993,,,,,,,,,,,,,,
,,,,,,,,,,,,,,,,WRO86,001,WRO86,2023-12-19_14h19.22.788,Trial go no go,2020.2.10,Win32,60,,,space,1,0,12,12,30,1,X,space,0.4154,,,,,,,,,,,,,,
,,,,,,,,,,,,,,,,WRO86,001,WRO86,2023-12-19_14h19.22.788,Trial go no go,2020.2.10,Win32,60,,,space,1,0,13,13,7,1,X,space,0.3692,,,,,,,,,,,,,,
,,,,,,,,,,,,,,,,WRO86,001,WRO86,2023-12-19_14h19.22.788,Trial go no go,2020.2.10,Win32,60,,,space,1,0,14,14,1,1,X,space,0.326,,,,,,,,,,,,,,
,,,,,,,,,,,,,,,,WRO86,001,WRO86,2023-12-19_14h19.22.788,Trial go no go,2020.2.10,Win32,60,,,space,1,0,15,15,28,1,X,space,0.3909,,,,,,,,,,,,,,
,,,,,,,,,,,,,,,,WRO86,001,WRO86,2023-12-19_14h19.22.788,Trial go no go,2020.2.10,Win32,60,,,space,1,0,16,16,18,1,X,space,0.3314,,,,,,,,,,,,,,
,,,,,,,,,,,,,,,,WRO86,001,WRO86,2023-12-19_14h19.22.788,Trial go no go,2020.2.10,Win32,60,,,,1,0,17,17,24,1,H,none,,,,,,,,,,,,,,,
,,,,,,,,,,,,,,,,WRO86,001,WRO86,2023-12-19_14h19.22.788,Trial go no go,2020.2.10,Win32,60,,,space,1,0,18,18,41,1,X,space,0.3975,,,,,,,,,,,,,,
,,,,,,,,,,,,,,,,WRO86,001,WRO86,2023-12-19_14h19.22.788,Trial go no go,2020.2.10,Win32,60,,,space,1,0,19,19,32,1,X,space,0.2859,,,,,,,,,,,,,,
,,,,,,,,,,,,,,,,WRO86,001,WRO86,2023-12-19_14h19.22.788,Trial go no go,2020.2.10,Win32,60,,,space,0,0,20,20,39,1,M,none,0.2504,,,,,,,,,,,,,,
,,,,,,,,,,,,,,,,WRO86,001,WRO86,2023-12-19_14h19.22.788,Trial go no go,2020.2.10,Win32,60,,,space,1,0,21,21,17,1,X,space,0.5473,,,,,,,,,,,,,,
,,,,,,,,,,,,,,,,WRO86,001,WRO86,2023-12-19_14h19.22.788,Trial go no go,2020.2.10,Win32,60,,,space,1,0,22,22,22,1,X,space,0.4155,,,,,,,,,,,,,,
,,,,,,,,,,,,,,,,WRO86,001,WRO86,2023-12-19_14h19.22.788,Trial go no go,2020.2.10,Win32,60,,,,1,0,23,23,14,1,Y,none,,,,,,,,,,,,,,,
,,,,,,,,,,,,,,,,WRO86,001,WRO86,2023-12-19_14h19.22.788,Trial go no go,2020.2.10,Win32,60,,,space,1,0,24,24,37,1,X,space,0.3706,,,,,,,,,,,,,,
,,,,,,,,,,,,,,,,WRO86,001,WRO86,2023-12-19_14h19.22.788,Trial go no go,2020.2.10,Win32,60,,,space,1,0,25,25,40,1,X,space,0.4914,,,,,,,,,,,,,,
,,,,,,,,,,,,,,,,WRO86,001,WRO86,2023-12-19_14h19.22.788,Trial go no go,2020.2.10,Win32,60,,,,1,0,26,26,4,1,V,none,,,,,,,,,,,,,,,
,,,,,,,,,,,,,,,,WRO86,001,WRO86,2023-12-19_14h19.22.788,Trial go no go,2020.2.10,Win32,60,,,space,1,0,27,27,48,1,X,space,0.46,,,,,,,,,,,,,,
,,,,,,,,,,,,,,,,WRO86,001,WRO86,2023-12-19_14h19.22.788,Trial go no go,2020.2.10,Win32,60,,,space,1,0,28,28,31,1,X,space,0.459,,,,,,,,,,,,,,
,,,,,,,,,,,,,,,,WRO86,001,WRO86,2023-12-19_14h19.22.788,Trial go no go,2020.2.10,Win32,60,,,space,1,0,29,29,47,1,X,space,0.4405,,,,,,,,,,,,,,
,,,,,,,,,,,,,,,,WRO86,001,WRO86,2023-12-19_14h19.22.788,Trial go no go,2020.2.10,Win32,60,,,space,1,0,30,30,0,1,X,space,0.5006,,,,,,,,,,,,,,
,,,,,,,,,,,,,,,,WRO86,001,WRO86,2023-12-19_14h19.22.788,Trial go no go,2020.2.10,Win32,60,,,space,1,0,31,31,3,1,X,space,0.3663,,,,,,,,,,,,,,
,,,,,,,,,,,,,,,,WRO86,001,WRO86,2023-12-19_14h19.22.788,Trial go no go,2020.2.10,Win32,60,,,space,1,0,32,32,43,1,X,space,0.7503,,,,,,,,,,,,,,
,,,,,,,,,,,,,,,,WRO86,001,WRO86,2023-12-19_14h19.22.788,Trial go no go,2020.2.10,Win32,60,,,,1,0,33,33,29,1,T,none,,,,,,,,,,,,,,,
,,,,,,,,,,,,,,,,WRO86,001,WRO86,2023-12-19_14h19.22.788,Trial go no go,2020.2.10,Win32,60,,,space,1,0,34,34,35,1,X,space,0.4431,,,,,,,,,,,,,,
,,,,,,,,,,,,,,,,WRO86,001,WRO86,2023-12-19_14h19.22.788,Trial go no go,2020.2.10,Win32,60,,,,1,0,35,35,34,1,N,none,,,,,,,,,,,,,,,
,,,,,,,,,,,,,,,,WRO86,001,WRO86,2023-12-19_14h19.22.788,Trial go no go,2020.2.10,Win32,60,,,,1,0,36,36,44,1,F,none,,,,,,,,,,,,,,,
,,,,,,,,,,,,,,,,WRO86,001,WRO86,2023-12-19_14h19.22.788,Trial go no go,2020.2.10,Win32,60,,,space,1,0,37,37,16,1,X,space,0.4524,,,,,,,,,,,,,,
,,,,,,,,,,,,,,,,WRO86,001,WRO86,2023-12-19_14h19.22.788,Trial go no go,2020.2.10,Win32,60,,,space,1,0,38,38,5,1,X,space,0.4544,,,,,,,,,,,,,,
,,,,,,,,,,,,,,,,WRO86,001,WRO86,2023-12-19_14h19.22.788,Trial go no go,2020.2.10,Win32,60,,,space,1,0,39,39,33,1,X,space,0.3314,,,,,,,,,,,,,,
,,,,,,,,,,,,,,,,WRO86,001,WRO86,2023-12-19_14h19.22.788,Trial go no go,2020.2.10,Win32,60,,,space,1,0,40,40,20,1,X,space,0.3397,,,,,,,,,,,,,,
,,,,,,,,,,,,,,,,WRO86,001,WRO86,2023-12-19_14h19.22.788,Trial go no go,2020.2.10,Win32,60,,,space,1,0,41,41,46,1,X,space,0.2903,,,,,,,,,,,,,,
,,,,,,,,,,,,,,,,WRO86,001,WRO86,2023-12-19_14h19.22.788,Trial go no go,2020.2.10,Win32,60,,,space,1,0,42,42,2,1,X,space,0.3234,,,,,,,,,,,,,,
,,,,,,,,,,,,,,,,WRO86,001,WRO86,2023-12-19_14h19.22.788,Trial go no go,2020.2.10,Win32,60,,,space,1,0,43,43,38,1,X,space,0.3443,,,,,,,,,,,,,,
,,,,,,,,,,,,,,,,WRO86,001,WRO86,2023-12-19_14h19.22.788,Trial go no go,2020.2.10,Win32,60,,,space,1,0,44,44,13,1,X,space,0.3494,,,,,,,,,,,,,,
,,,,,,,,,,,,,,,,WRO86,001,WRO86,2023-12-19_14h19.22.788,Trial go no go,2020.2.10,Win32,60,,,space,1,0,45,45,8,1,X,space,0.3204,,,,,,,,,,,,,,
,,,,,,,,,,,,,,,,WRO86,001,WRO86,2023-12-19_14h19.22.788,Trial go no go,2020.2.10,Win32,60,,,space,1,0,46,46,12,1,X,space,0.3249,,,,,,,,,,,,,,
,,,,,,,,,,,,,,,,WRO86,001,WRO86,2023-12-19_14h19.22.788,Trial go no go,2020.2.10,Win32,60,,,space,1,0,47,47,11,1,X,space,0.316,,,,,,,,,,,,,,
,,,,,,,,,,,,,,,,WRO86,001,WRO86,2023-12-19_14h19.22.788,Trial go no go,2020.2.10,Win32,60,,,space,1,0,48,48,6,1,X,space,0.3005,,,,,,,,,,,,,,
,,,,,,,,,,,,,,,,WRO86,001,WRO86,2023-12-19_14h19.22.788,Trial go no go,2020.2.10,Win32,60,,,space,1,0,49,49,26,1,X,space,0.3253,,,,,,,,,,,,,,
,,,,,,,,,,,,,,,,WRO86,001,WRO86,2023-12-19_14h19.22.788,Trial go no go,2020.2.10,Win32,60,,,,,,,,,,,,,z,15.3858,space,1,0.8129,0,0,0,18,1,W,space,,
,,,,,,,,,,,,,,,,WRO86,001,WRO86,2023-12-19_14h19.22.788,Trial go no go,2020.2.10,Win32,60,,,,,,,,,,,,,,,space,0,0.3365,0,1,1,4,1,X,none,,
,,,,,,,,,,,,,,,,WRO86,001,WRO86,2023-12-19_14h19.22.788,Trial go no go,2020.2.10,Win32,60,,,,,,,,,,,,,,,space,1,0.4148,0,2,2,5,1,Y,space,,
,,,,,,,,,,,,,,,,WRO86,001,WRO86,2023-12-19_14h19.22.788,Trial go no go,2020.2.10,Win32,60,,,,,,,,,,,,,,,space,1,0.4522,0,3,3,23,1,Y,space,,
,,,,,,,,,,,,,,,,WRO86,001,WRO86,2023-12-19_14h19.22.788,Trial go no go,2020.2.10,Win32,60,,,,,,,,,,,,,,,space,1,0.431,0,4,4,13,1,Z,space,,
,,,,,,,,,,,,,,,,WRO86,001,WRO86,2023-12-19_14h19.22.788,Trial go no go,2020.2.10,Win32,60,,,,,,,,,,,,,,,space,1,0.4794,0,5,5,16,1,N,space,,
,,,,,,,,,,,,,,,,WRO86,001,WRO86,2023-12-19_14h19.22.788,Trial go no go,2020.2.10,Win32,60,,,,,,,,,,,,,,,space,1,0.3612,0,6,6,12,1,L,space,,
,,,,,,,,,,,,,,,,WRO86,001,WRO86,2023-12-19_14h19.22.788,Trial go no go,2020.2.10,Win32,60,,,,,,,,,,,,,,,space,1,0.3216,0,7,7,10,1,H,space,,
,,,,,,,,,,,,,,,,WRO86,001,WRO86,2023-12-19_14h19.22.788,Trial go no go,2020.2.10,Win32,60,,,,,,,,,,,,,,,space,1,0.3311,0,8,8,27,1,F,space,,
,,,,,,,,,,,,,,,,WRO86,001,WRO86,2023-12-19_14h19.22.788,Trial go no go,2020.2.10,Win32,60,,,,,,,,,,,,,,,space,1,0.3012,0,9,9,32,1,Z,space,,
,,,,,,,,,,,,,,,,WRO86,001,WRO86,2023-12-19_14h19.22.788,Trial go no go,2020.2.10,Win32,60,,,,,,,,,,,,,,,space,1,0.3812,0,10,10,2,1,R,space,,
,,,,,,,,,,,,,,,,WRO86,001,WRO86,2023-12-19_14h19.22.788,Trial go no go,2020.2.10,Win32,60,,,,,,,,,,,,,,,space,1,0.3001,0,11,11,42,1,Y,space,,
,,,,,,,,,,,,,,,,WRO86,001,WRO86,2023-12-19_14h19.22.788,Trial go no go,2020.2.10,Win32,60,,,,,,,,,,,,,,,space,1,0.339,0,12,12,6,1,I,space,,
,,,,,,,,,,,,,,,,WRO86,001,WRO86,2023-12-19_14h19.22.788,Trial go no go,2020.2.10,Win32,60,,,,,,,,,,,,,,,space,1,0.3076,0,13,13,11,1,K,space,,
,,,,,,,,,,,,,,,,WRO86,001,WRO86,2023-12-19_14h19.22.788,Trial go no go,2020.2.10,Win32,60,,,,,,,,,,,,,,,space,1,0.324,0,14,14,26,1,A,space,,
,,,,,,,,,,,,,,,,WRO86,001,WRO86,2023-12-19_14h19.22.788,Trial go no go,2020.2.10,Win32,60,,,,,,,,,,,,,,,space,1,0.2934,0,15,15,20,1,E,space,,
,,,,,,,,,,,,,,,,WRO86,001,WRO86,2023-12-19_14h19.22.788,Trial go no go,2020.2.10,Win32,60,,,,,,,,,,,,,,,space,0,0.3077,0,16,16,29,1,X,none,,
,,,,,,,,,,,,,,,,WRO86,001,WRO86,2023-12-19_14h19.22.788,Trial go no go,2020.2.10,Win32,60,,,,,,,,,,,,,,,space,1,0.391,0,17,17,37,1,W,space,,
,,,,,,,,,,,,,,,,WRO86,001,WRO86,2023-12-19_14h19.22.788,Trial go no go,2020.2.10,Win32,60,,,,,,,,,,,,,,,space,1,0.364,0,18,18,36,1,M,space,,
,,,,,,,,,,,,,,,,WRO86,001,WRO86,2023-12-19_14h19.22.788,Trial go no go,2020.2.10,Win32,60,,,,,,,,,,,,,,,space,1,0.3075,0,19,19,28,1,H,space,,
,,,,,,,,,,,,,,,,WRO86,001,WRO86,2023-12-19_14h19.22.788,Trial go no go,2020.2.10,Win32,60,,,,,,,,,,,,,,,space,1,0.3397,0,20,20,3,1,T,space,,
,,,,,,,,,,,,,,,,WRO86,001,WRO86,2023-12-19_14h19.22.788,Trial go no go,2020.2.10,Win32,60,,,,,,,,,,,,,,,space,1,0.3019,0,21,21,38,1,E,space,,
,,,,,,,,,,,,,,,,WRO86,001,WRO86,2023-12-19_14h19.22.788,Trial go no go,2020.2.10,Win32,60,,,,,,,,,,,,,,,space,1,0.3525,0,22,22,25,1,I,space,,
,,,,,,,,,,,,,,,,WRO86,001,WRO86,2023-12-19_14h19.22.788,Trial go no go,2020.2.10,Win32,60,,,,,,,,,,,,,,,space,1,0.3211,0,23,23,31,1,L,space,,
,,,,,,,,,,,,,,,,WRO86,001,WRO86,2023-12-19_14h19.22.788,Trial go no go,2020.2.10,Win32,60,,,,,,,,,,,,,,,space,1,0.321,0,24,24,48,1,K,space,,
,,,,,,,,,,,,,,,,WRO86,001,WRO86,2023-12-19_14h19.22.788,Trial go no go,2020.2.10,Win32,60,,,,,,,,,,,,,,,space,1,0.3045,0,25,25,45,1,A,space,,
,,,,,,,,,,,,,,,,WRO86,001,WRO86,2023-12-19_14h19.22.788,Trial go no go,2020.2.10,Win32,60,,,,,,,,,,,,,,,space,0,0.2941,0,26,26,24,1,X,none,,
,,,,,,,,,,,,,,,,WRO86,001,WRO86,2023-12-19_14h19.22.788,Trial go no go,2020.2.10,Win32,60,,,,,,,,,,,,,,,space,1,0.2757,0,27,27,46,1,F,space,,
,,,,,,,,,,,,,,,,WRO86,001,WRO86,2023-12-19_14h19.22.788,Trial go no go,2020.2.10,Win32,60,,,,,,,,,,,,,,,space,1,0.2981,0,28,28,1,1,E,space,,
,,,,,,,,,,,,,,,,WRO86,001,WRO86,2023-12-19_14h19.22.788,Trial go no go,2020.2.10,Win32,60,,,,,,,,,,,,,,,space,0,0.2732,0,29,29,9,1,X,none,,
,,,,,,,,,,,,,,,,WRO86,001,WRO86,2023-12-19_14h19.22.788,Trial go no go,2020.2.10,Win32,60,,,,,,,,,,,,,,,,0,,0,30,30,43,1,I,space,,
,,,,,,,,,,,,,,,,WRO86,001,WRO86,2023-12-19_14h19.22.788,Trial go no go,2020.2.10,Win32,60,,,,,,,,,,,,,,,space,1,0.2646,0,31,31,40,1,R,space,,
,,,,,,,,,,,,,,,,WRO86,001,WRO86,2023-12-19_14h19.22.788,Trial go no go,2020.2.10,Win32,60,,,,,,,,,,,,,,,,1,,0,32,32,34,1,X,none,,
,,,,,,,,,,,,,,,,WRO86,001,WRO86,2023-12-19_14h19.22.788,Trial go no go,2020.2.10,Win32,60,,,,,,,,,,,,,,,space,1,0.3942,0,33,33,15,1,V,space,,
,,,,,,,,,,,,,,,,WRO86,001,WRO86,2023-12-19_14h19.22.788,Trial go no go,2020.2.10,Win32,60,,,,,,,,,,,,,,,space,1,0.2612,0,34,34,0,1,W,space,,
,,,,,,,,,,,,,,,,WRO86,001,WRO86,2023-12-19_14h19.22.788,Trial go no go,2020.2.10,Win32,60,,,,,,,,,,,,,,,space,1,0.2885,0,35,35,47,1,H,space,,
,,,,,,,,,,,,,,,,WRO86,001,WRO86,2023-12-19_14h19.22.788,Trial go no go,2020.2.10,Win32,60,,,,,,,,,,,,,,,space,1,0.2934,0,36,36,8,1,F,space,,
,,,,,,,,,,,,,,,,WRO86,001,WRO86,2023-12-19_14h19.22.788,Trial go no go,2020.2.10,Win32,60,,,,,,,,,,,,,,,space,1,0.3233,0,37,37,21,1,R,space,,
,,,,,,,,,,,,,,,,WRO86,001,WRO86,2023-12-19_14h19.22.788,Trial go no go,2020.2.10,Win32,60,,,,,,,,,,,,,,,,1,,0,38,38,39,1,X,none,,
,,,,,,,,,,,,,,,,WRO86,001,WRO86,2023-12-19_14h19.22.788,Trial go no go,2020.2.10,Win32,60,,,,,,,,,,,,,,,space,0,0.3154,0,39,39,14,1,X,none,,
,,,,,,,,,,,,,,,,WRO86,001,WRO86,2023-12-19_14h19.22.788,Trial go no go,2020.2.10,Win32,60,,,,,,,,,,,,,,,space,1,0.5492,0,40,40,35,1,N,space,,
,,,,,,,,,,,,,,,,WRO86,001,WRO86,2023-12-19_14h19.22.788,Trial go no go,2020.2.10,Win32,60,,,,,,,,,,,,,,,space,1,0.4329,0,41,41,17,1,M,space,,
,,,,,,,,,,,,,,,,WRO86,001,WRO86,2023-12-19_14h19.22.788,Trial go no go,2020.2.10,Win32,60,,,,,,,,,,,,,,,,1,,0,42,42,49,1,X,none,,
,,,,,,,,,,,,,,,,WRO86,001,WRO86,2023-12-19_14h19.22.788,Trial go no go,2020.2.10,Win32,60,,,,,,,,,,,,,,,space,1,0.2549,0,43,43,22,1,T,space,,
,,,,,,,,,,,,,,,,WRO86,001,WRO86,2023-12-19_14h19.22.788,Trial go no go,2020.2.10,Win32,60,,,,,,,,,,,,,,,,1,,0,44,44,44,1,X,none,,
,,,,,,,,,,,,,,,,WRO86,001,WRO86,2023-12-19_14h19.22.788,Trial go no go,2020.2.10,Win32,60,,,,,,,,,,,,,,,space,1,0.2831,0,45,45,7,1,A,space,,
,,,,,,,,,,,,,,,,WRO86,001,WRO86,2023-12-19_14h19.22.788,Trial go no go,2020.2.10,Win32,60,,,,,,,,,,,,,,,space,1,0.5109,0,46,46,33,1,V,space,,
,,,,,,,,,,,,,,,,WRO86,001,WRO86,2023-12-19_14h19.22.788,Trial go no go,2020.2.10,Win32,60,,,,,,,,,,,,,,,space,1,0.3074,0,47,47,41,1,T,space,,
,,,,,,,,,,,,,,,,WRO86,001,WRO86,2023-12-19_14h19.22.788,Trial go no go,2020.2.10,Win32,60,,,,,,,,,,,,,,,space,1,0.3337,0,48,48,30,1,K,space,,
,,,,,,,,,,,,,,,,WRO86,001,WRO86,2023-12-19_14h19.22.788,Trial go no go,2020.2.10,Win32,60,,,,,,,,,,,,,,,,1,,0,49,49,19,1,X,none,,
,,,,,,,,,,,,,,,,WRO86,001,WRO86,2023-12-19_14h19.22.788,Trial go no go,2020.2.10,Win32,60,,,,,,,,,,,,,,,,,,,,,,,,,space,22.4626
