resp_Welcome.keys,resp_Welcome.rt,resp_Instr_Intro.keys,resp_Instr_Intro.rt,resp_Instr_Prac1.keys,resp_Instr_Prac1.rt,resp_trial_Prac1.keys,resp_trial_Prac1.corr,prac_trials.thisRepN,prac_trials.thisTrialN,prac_trials.thisN,prac_trials.thisIndex,prac_trials.ran,stimulus_prac1,corrAns_prac1,participant,session,indywidualny kod,date,expName,psychopyVersion,OS,frameRate,resp_trial_Prac1.rt,resp_Instr_Test1.keys,resp_Instr_Test1.rt,resp_trial_Test1.keys,resp_trial_Test1.corr,resp_trial_Test1.rt,test1trial.thisRepN,test1trial.thisTrialN,test1trial.thisN,test1trial.thisIndex,test1trial.ran,stimulus_test1,corrAns_test1,resp_Instr_Test2.keys,resp_Instr_Test2.rt,key_resp_Test2.keys,key_resp_Test2.corr,key_resp_Test2.rt,test2trial.thisRepN,test2trial.thisTrialN,test2trial.thisN,test2trial.thisIndex,test2trial.ran,stimulus_test2,corrAns_test2,resp_theEnd.keys,resp_theEnd.rt
space,12.1611,space,13.1664,space,12.8667,,0,0,0,0,5,1,X,space,WRO83,001,WRO83,2023-11-28_13h22.58.257,Trial go no go,2020.2.10,Win32,60,,,,,,,,,,,,,,,,,,,,,,,,,,,
,,,,,,,1,0,1,1,14,1,K,none,WRO83,001,WRO83,2023-11-28_13h22.58.257,Trial go no go,2020.2.10,Win32,60,,,,,,,,,,,,,,,,,,,,,,,,,,,
,,,,,,space,1,0,2,2,6,1,X,space,WRO83,001,WRO83,2023-11-28_13h22.58.257,Trial go no go,2020.2.10,Win32,60,0.5004,,,,,,,,,,,,,,,,,,,,,,,,,,
,,,,,,space,1,0,3,3,0,1,X,space,WRO83,001,WRO83,2023-11-28_13h22.58.257,Trial go no go,2020.2.10,Win32,60,0.3662,,,,,,,,,,,,,,,,,,,,,,,,,,
,,,,,,,1,0,4,4,4,1,W,none,WRO83,001,WRO83,2023-11-28_13h22.58.257,Trial go no go,2020.2.10,Win32,60,,,,,,,,,,,,,,,,,,,,,,,,,,,
,,,,,,space,1,0,5,5,13,1,X,space,WRO83,001,WRO83,2023-11-28_13h22.58.257,Trial go no go,2020.2.10,Win32,60,0.4117,,,,,,,,,,,,,,,,,,,,,,,,,,
,,,,,,space,1,0,6,6,7,1,X,space,WRO83,001,WRO83,2023-11-28_13h22.58.257,Trial go no go,2020.2.10,Win32,60,0.4618,,,,,,,,,,,,,,,,,,,,,,,,,,
,,,,,,,1,0,7,7,9,1,V,none,WRO83,001,WRO83,2023-11-28_13h22.58.257,Trial go no go,2020.2.10,Win32,60,,,,,,,,,,,,,,,,,,,,,,,,,,,
,,,,,,space,1,0,8,8,2,1,X,space,WRO83,001,WRO83,2023-11-28_13h22.58.257,Trial go no go,2020.2.10,Win32,60,0.3645,,,,,,,,,,,,,,,,,,,,,,,,,,
,,,,,,space,1,0,9,9,8,1,X,space,WRO83,001,WRO83,2023-11-28_13h22.58.257,Trial go no go,2020.2.10,Win32,60,0.3776,,,,,,,,,,,,,,,,,,,,,,,,,,
,,,,,,space,1,0,10,10,11,1,X,space,WRO83,001,WRO83,2023-11-28_13h22.58.257,Trial go no go,2020.2.10,Win32,60,0.3867,,,,,,,,,,,,,,,,,,,,,,,,,,
,,,,,,space,1,0,11,11,12,1,X,space,WRO83,001,WRO83,2023-11-28_13h22.58.257,Trial go no go,2020.2.10,Win32,60,0.3758,,,,,,,,,,,,,,,,,,,,,,,,,,
,,,,,,space,1,0,12,12,3,1,X,space,WRO83,001,WRO83,2023-11-28_13h22.58.257,Trial go no go,2020.2.10,Win32,60,0.3825,,,,,,,,,,,,,,,,,,,,,,,,,,
,,,,,,space,1,0,13,13,10,1,X,space,WRO83,001,WRO83,2023-11-28_13h22.58.257,Trial go no go,2020.2.10,Win32,60,0.4324,,,,,,,,,,,,,,,,,,,,,,,,,,
,,,,,,space,1,0,14,14,1,1,X,space,WRO83,001,WRO83,2023-11-28_13h22.58.257,Trial go no go,2020.2.10,Win32,60,0.3685,,,,,,,,,,,,,,,,,,,,,,,,,,
,,,,,,,,,,,,,,,WRO83,001,WRO83,2023-11-28_13h22.58.257,Trial go no go,2020.2.10,Win32,60,,space,7.699,space,1,0.3655,0,0,0,27,1,X,space,,,,,,,,,,,,,,
,,,,,,,,,,,,,,,WRO83,001,WRO83,2023-11-28_13h22.58.257,Trial go no go,2020.2.10,Win32,60,,,,space,1,0.3351,0,1,1,23,1,X,space,,,,,,,,,,,,,,
,,,,,,,,,,,,,,,WRO83,001,WRO83,2023-11-28_13h22.58.257,Trial go no go,2020.2.10,Win32,60,,,,,1,,0,2,2,39,1,M,none,,,,,,,,,,,,,,
,,,,,,,,,,,,,,,WRO83,001,WRO83,2023-11-28_13h22.58.257,Trial go no go,2020.2.10,Win32,60,,,,space,1,0.2978,0,3,3,3,1,X,space,,,,,,,,,,,,,,
,,,,,,,,,,,,,,,WRO83,001,WRO83,2023-11-28_13h22.58.257,Trial go no go,2020.2.10,Win32,60,,,,,1,,0,4,4,29,1,T,none,,,,,,,,,,,,,,
,,,,,,,,,,,,,,,WRO83,001,WRO83,2023-11-28_13h22.58.257,Trial go no go,2020.2.10,Win32,60,,,,space,1,0.3314,0,5,5,33,1,X,space,,,,,,,,,,,,,,
,,,,,,,,,,,,,,,WRO83,001,WRO83,2023-11-28_13h22.58.257,Trial go no go,2020.2.10,Win32,60,,,,space,1,0.3194,0,6,6,46,1,X,space,,,,,,,,,,,,,,
,,,,,,,,,,,,,,,WRO83,001,WRO83,2023-11-28_13h22.58.257,Trial go no go,2020.2.10,Win32,60,,,,space,1,0.267,0,7,7,12,1,X,space,,,,,,,,,,,,,,
,,,,,,,,,,,,,,,WRO83,001,WRO83,2023-11-28_13h22.58.257,Trial go no go,2020.2.10,Win32,60,,,,space,1,0.2485,0,8,8,30,1,X,space,,,,,,,,,,,,,,
,,,,,,,,,,,,,,,WRO83,001,WRO83,2023-11-28_13h22.58.257,Trial go no go,2020.2.10,Win32,60,,,,space,1,0.2571,0,9,9,18,1,X,space,,,,,,,,,,,,,,
,,,,,,,,,,,,,,,WRO83,001,WRO83,2023-11-28_13h22.58.257,Trial go no go,2020.2.10,Win32,60,,,,space,1,0.3599,0,10,10,13,1,X,space,,,,,,,,,,,,,,
,,,,,,,,,,,,,,,WRO83,001,WRO83,2023-11-28_13h22.58.257,Trial go no go,2020.2.10,Win32,60,,,,space,0,0.2426,0,11,11,19,1,K,none,,,,,,,,,,,,,,
,,,,,,,,,,,,,,,WRO83,001,WRO83,2023-11-28_13h22.58.257,Trial go no go,2020.2.10,Win32,60,,,,space,1,0.3246,0,12,12,7,1,X,space,,,,,,,,,,,,,,
,,,,,,,,,,,,,,,WRO83,001,WRO83,2023-11-28_13h22.58.257,Trial go no go,2020.2.10,Win32,60,,,,space,1,0.2676,0,13,13,37,1,X,space,,,,,,,,,,,,,,
,,,,,,,,,,,,,,,WRO83,001,WRO83,2023-11-28_13h22.58.257,Trial go no go,2020.2.10,Win32,60,,,,space,1,0.2992,0,14,14,45,1,X,space,,,,,,,,,,,,,,
,,,,,,,,,,,,,,,WRO83,001,WRO83,2023-11-28_13h22.58.257,Trial go no go,2020.2.10,Win32,60,,,,space,1,0.3374,0,15,15,1,1,X,space,,,,,,,,,,,,,,
,,,,,,,,,,,,,,,WRO83,001,WRO83,2023-11-28_13h22.58.257,Trial go no go,2020.2.10,Win32,60,,,,space,1,0.3102,0,16,16,35,1,X,space,,,,,,,,,,,,,,
,,,,,,,,,,,,,,,WRO83,001,WRO83,2023-11-28_13h22.58.257,Trial go no go,2020.2.10,Win32,60,,,,space,1,0.284,0,17,17,48,1,X,space,,,,,,,,,,,,,,
,,,,,,,,,,,,,,,WRO83,001,WRO83,2023-11-28_13h22.58.257,Trial go no go,2020.2.10,Win32,60,,,,space,1,0.3004,0,18,18,31,1,X,space,,,,,,,,,,,,,,
,,,,,,,,,,,,,,,WRO83,001,WRO83,2023-11-28_13h22.58.257,Trial go no go,2020.2.10,Win32,60,,,,space,1,0.3187,0,19,19,15,1,X,space,,,,,,,,,,,,,,
,,,,,,,,,,,,,,,WRO83,001,WRO83,2023-11-28_13h22.58.257,Trial go no go,2020.2.10,Win32,60,,,,space,1,0.2877,0,20,20,22,1,X,space,,,,,,,,,,,,,,
,,,,,,,,,,,,,,,WRO83,001,WRO83,2023-11-28_13h22.58.257,Trial go no go,2020.2.10,Win32,60,,,,space,1,0.2612,0,21,21,42,1,X,space,,,,,,,,,,,,,,
,,,,,,,,,,,,,,,WRO83,001,WRO83,2023-11-28_13h22.58.257,Trial go no go,2020.2.10,Win32,60,,,,space,1,0.2824,0,22,22,6,1,X,space,,,,,,,,,,,,,,
,,,,,,,,,,,,,,,WRO83,001,WRO83,2023-11-28_13h22.58.257,Trial go no go,2020.2.10,Win32,60,,,,space,1,0.2681,0,23,23,8,1,X,space,,,,,,,,,,,,,,
,,,,,,,,,,,,,,,WRO83,001,WRO83,2023-11-28_13h22.58.257,Trial go no go,2020.2.10,Win32,60,,,,,1,,0,24,24,49,1,E,none,,,,,,,,,,,,,,
,,,,,,,,,,,,,,,WRO83,001,WRO83,2023-11-28_13h22.58.257,Trial go no go,2020.2.10,Win32,60,,,,,1,,0,25,25,34,1,N,none,,,,,,,,,,,,,,
,,,,,,,,,,,,,,,WRO83,001,WRO83,2023-11-28_13h22.58.257,Trial go no go,2020.2.10,Win32,60,,,,space,1,0.3168,0,26,26,26,1,X,space,,,,,,,,,,,,,,
,,,,,,,,,,,,,,,WRO83,001,WRO83,2023-11-28_13h22.58.257,Trial go no go,2020.2.10,Win32,60,,,,space,1,0.2889,0,27,27,21,1,X,space,,,,,,,,,,,,,,
,,,,,,,,,,,,,,,WRO83,001,WRO83,2023-11-28_13h22.58.257,Trial go no go,2020.2.10,Win32,60,,,,space,0,0.2627,0,28,28,14,1,Y,none,,,,,,,,,,,,,,
,,,,,,,,,,,,,,,WRO83,001,WRO83,2023-11-28_13h22.58.257,Trial go no go,2020.2.10,Win32,60,,,,space,1,0.2516,0,29,29,32,1,X,space,,,,,,,,,,,,,,
,,,,,,,,,,,,,,,WRO83,001,WRO83,2023-11-28_13h22.58.257,Trial go no go,2020.2.10,Win32,60,,,,space,1,0.2707,0,30,30,2,1,X,space,,,,,,,,,,,,,,
,,,,,,,,,,,,,,,WRO83,001,WRO83,2023-11-28_13h22.58.257,Trial go no go,2020.2.10,Win32,60,,,,space,0,0.2462,0,31,31,24,1,H,none,,,,,,,,,,,,,,
,,,,,,,,,,,,,,,WRO83,001,WRO83,2023-11-28_13h22.58.257,Trial go no go,2020.2.10,Win32,60,,,,space,1,0.3295,0,32,32,17,1,X,space,,,,,,,,,,,,,,
,,,,,,,,,,,,,,,WRO83,001,WRO83,2023-11-28_13h22.58.257,Trial go no go,2020.2.10,Win32,60,,,,space,1,0.4446,0,33,33,36,1,X,space,,,,,,,,,,,,,,
,,,,,,,,,,,,,,,WRO83,001,WRO83,2023-11-28_13h22.58.257,Trial go no go,2020.2.10,Win32,60,,,,space,1,0.2669,0,34,34,10,1,X,space,,,,,,,,,,,,,,
,,,,,,,,,,,,,,,WRO83,001,WRO83,2023-11-28_13h22.58.257,Trial go no go,2020.2.10,Win32,60,,,,space,1,0.2884,0,35,35,40,1,X,space,,,,,,,,,,,,,,
,,,,,,,,,,,,,,,WRO83,001,WRO83,2023-11-28_13h22.58.257,Trial go no go,2020.2.10,Win32,60,,,,space,1,0.2848,0,36,36,43,1,X,space,,,,,,,,,,,,,,
,,,,,,,,,,,,,,,WRO83,001,WRO83,2023-11-28_13h22.58.257,Trial go no go,2020.2.10,Win32,60,,,,space,0,0.2972,0,37,37,9,1,W,none,,,,,,,,,,,,,,
,,,,,,,,,,,,,,,WRO83,001,WRO83,2023-11-28_13h22.58.257,Trial go no go,2020.2.10,Win32,60,,,,space,1,0.3268,0,38,38,16,1,X,space,,,,,,,,,,,,,,
,,,,,,,,,,,,,,,WRO83,001,WRO83,2023-11-28_13h22.58.257,Trial go no go,2020.2.10,Win32,60,,,,space,1,0.3996,0,39,39,41,1,X,space,,,,,,,,,,,,,,
,,,,,,,,,,,,,,,WRO83,001,WRO83,2023-11-28_13h22.58.257,Trial go no go,2020.2.10,Win32,60,,,,space,1,0.2723,0,40,40,5,1,X,space,,,,,,,,,,,,,,
,,,,,,,,,,,,,,,WRO83,001,WRO83,2023-11-28_13h22.58.257,Trial go no go,2020.2.10,Win32,60,,,,space,1,0.2565,0,41,41,11,1,X,space,,,,,,,,,,,,,,
,,,,,,,,,,,,,,,WRO83,001,WRO83,2023-11-28_13h22.58.257,Trial go no go,2020.2.10,Win32,60,,,,,1,,0,42,42,44,1,F,none,,,,,,,,,,,,,,
,,,,,,,,,,,,,,,WRO83,001,WRO83,2023-11-28_13h22.58.257,Trial go no go,2020.2.10,Win32,60,,,,,1,,0,43,43,4,1,V,none,,,,,,,,,,,,,,
,,,,,,,,,,,,,,,WRO83,001,WRO83,2023-11-28_13h22.58.257,Trial go no go,2020.2.10,Win32,60,,,,space,1,0.2457,0,44,44,47,1,X,space,,,,,,,,,,,,,,
,,,,,,,,,,,,,,,WRO83,001,WRO83,2023-11-28_13h22.58.257,Trial go no go,2020.2.10,Win32,60,,,,space,1,0.2842,0,45,45,38,1,X,space,,,,,,,,,,,,,,
,,,,,,,,,,,,,,,WRO83,001,WRO83,2023-11-28_13h22.58.257,Trial go no go,2020.2.10,Win32,60,,,,space,1,0.3179,0,46,46,28,1,X,space,,,,,,,,,,,,,,
,,,,,,,,,,,,,,,WRO83,001,WRO83,2023-11-28_13h22.58.257,Trial go no go,2020.2.10,Win32,60,,,,space,1,0.3094,0,47,47,25,1,X,space,,,,,,,,,,,,,,
,,,,,,,,,,,,,,,WRO83,001,WRO83,2023-11-28_13h22.58.257,Trial go no go,2020.2.10,Win32,60,,,,space,1,0.3573,0,48,48,0,1,X,space,,,,,,,,,,,,,,
,,,,,,,,,,,,,,,WRO83,001,WRO83,2023-11-28_13h22.58.257,Trial go no go,2020.2.10,Win32,60,,,,space,1,0.2402,0,49,49,20,1,X,space,,,,,,,,,,,,,,
,,,,,,,,,,,,,,,WRO83,001,WRO83,2023-11-28_13h22.58.257,Trial go no go,2020.2.10,Win32,60,,,,,,,,,,,,,,z,22.0842,space,1,0.3996,0,0,0,12,1,L,space,,
,,,,,,,,,,,,,,,WRO83,001,WRO83,2023-11-28_13h22.58.257,Trial go no go,2020.2.10,Win32,60,,,,,,,,,,,,,,,,space,1,0.454,0,1,1,43,1,I,space,,
,,,,,,,,,,,,,,,WRO83,001,WRO83,2023-11-28_13h22.58.257,Trial go no go,2020.2.10,Win32,60,,,,,,,,,,,,,,,,space,1,0.2928,0,2,2,13,1,Z,space,,
,,,,,,,,,,,,,,,WRO83,001,WRO83,2023-11-28_13h22.58.257,Trial go no go,2020.2.10,Win32,60,,,,,,,,,,,,,,,,,1,,0,3,3,19,1,X,none,,
,,,,,,,,,,,,,,,WRO83,001,WRO83,2023-11-28_13h22.58.257,Trial go no go,2020.2.10,Win32,60,,,,,,,,,,,,,,,,space,1,0.3266,0,4,4,1,1,E,space,,
,,,,,,,,,,,,,,,WRO83,001,WRO83,2023-11-28_13h22.58.257,Trial go no go,2020.2.10,Win32,60,,,,,,,,,,,,,,,,space,1,0.3333,0,5,5,21,1,R,space,,
,,,,,,,,,,,,,,,WRO83,001,WRO83,2023-11-28_13h22.58.257,Trial go no go,2020.2.10,Win32,60,,,,,,,,,,,,,,,,space,1,0.2717,0,6,6,8,1,F,space,,
,,,,,,,,,,,,,,,WRO83,001,WRO83,2023-11-28_13h22.58.257,Trial go no go,2020.2.10,Win32,60,,,,,,,,,,,,,,,,space,1,0.3499,0,7,7,35,1,N,space,,
,,,,,,,,,,,,,,,WRO83,001,WRO83,2023-11-28_13h22.58.257,Trial go no go,2020.2.10,Win32,60,,,,,,,,,,,,,,,,space,1,0.3238,0,8,8,48,1,K,space,,
,,,,,,,,,,,,,,,WRO83,001,WRO83,2023-11-28_13h22.58.257,Trial go no go,2020.2.10,Win32,60,,,,,,,,,,,,,,,,space,1,0.3113,0,9,9,26,1,A,space,,
,,,,,,,,,,,,,,,WRO83,001,WRO83,2023-11-28_13h22.58.257,Trial go no go,2020.2.10,Win32,60,,,,,,,,,,,,,,,,space,1,0.2964,0,10,10,40,1,R,space,,
,,,,,,,,,,,,,,,WRO83,001,WRO83,2023-11-28_13h22.58.257,Trial go no go,2020.2.10,Win32,60,,,,,,,,,,,,,,,,space,1,0.299,0,11,11,7,1,A,space,,
,,,,,,,,,,,,,,,WRO83,001,WRO83,2023-11-28_13h22.58.257,Trial go no go,2020.2.10,Win32,60,,,,,,,,,,,,,,,,space,1,0.3109,0,12,12,31,1,L,space,,
,,,,,,,,,,,,,,,WRO83,001,WRO83,2023-11-28_13h22.58.257,Trial go no go,2020.2.10,Win32,60,,,,,,,,,,,,,,,,,1,,0,13,13,24,1,X,none,,
,,,,,,,,,,,,,,,WRO83,001,WRO83,2023-11-28_13h22.58.257,Trial go no go,2020.2.10,Win32,60,,,,,,,,,,,,,,,,space,1,0.2444,0,14,14,30,1,K,space,,
,,,,,,,,,,,,,,,WRO83,001,WRO83,2023-11-28_13h22.58.257,Trial go no go,2020.2.10,Win32,60,,,,,,,,,,,,,,,,space,1,0.3226,0,15,15,17,1,M,space,,
,,,,,,,,,,,,,,,WRO83,001,WRO83,2023-11-28_13h22.58.257,Trial go no go,2020.2.10,Win32,60,,,,,,,,,,,,,,,,space,1,0.3109,0,16,16,15,1,V,space,,
,,,,,,,,,,,,,,,WRO83,001,WRO83,2023-11-28_13h22.58.257,Trial go no go,2020.2.10,Win32,60,,,,,,,,,,,,,,,,space,1,0.3178,0,17,17,45,1,A,space,,
,,,,,,,,,,,,,,,WRO83,001,WRO83,2023-11-28_13h22.58.257,Trial go no go,2020.2.10,Win32,60,,,,,,,,,,,,,,,,space,1,0.2885,0,18,18,38,1,E,space,,
,,,,,,,,,,,,,,,WRO83,001,WRO83,2023-11-28_13h22.58.257,Trial go no go,2020.2.10,Win32,60,,,,,,,,,,,,,,,,space,1,0.3617,0,19,19,37,1,W,space,,
,,,,,,,,,,,,,,,WRO83,001,WRO83,2023-11-28_13h22.58.257,Trial go no go,2020.2.10,Win32,60,,,,,,,,,,,,,,,,,1,,0,20,20,34,1,X,none,,
,,,,,,,,,,,,,,,WRO83,001,WRO83,2023-11-28_13h22.58.257,Trial go no go,2020.2.10,Win32,60,,,,,,,,,,,,,,,,space,1,0.2451,0,21,21,42,1,Y,space,,
,,,,,,,,,,,,,,,WRO83,001,WRO83,2023-11-28_13h22.58.257,Trial go no go,2020.2.10,Win32,60,,,,,,,,,,,,,,,,,1,,0,22,22,4,1,X,none,,
,,,,,,,,,,,,,,,WRO83,001,WRO83,2023-11-28_13h22.58.257,Trial go no go,2020.2.10,Win32,60,,,,,,,,,,,,,,,,space,1,0.3489,0,23,23,22,1,T,space,,
,,,,,,,,,,,,,,,WRO83,001,WRO83,2023-11-28_13h22.58.257,Trial go no go,2020.2.10,Win32,60,,,,,,,,,,,,,,,,space,1,0.3147,0,24,24,0,1,W,space,,
,,,,,,,,,,,,,,,WRO83,001,WRO83,2023-11-28_13h22.58.257,Trial go no go,2020.2.10,Win32,60,,,,,,,,,,,,,,,,space,1,0.3234,0,25,25,11,1,K,space,,
,,,,,,,,,,,,,,,WRO83,001,WRO83,2023-11-28_13h22.58.257,Trial go no go,2020.2.10,Win32,60,,,,,,,,,,,,,,,,space,1,0.2851,0,26,26,20,1,E,space,,
,,,,,,,,,,,,,,,WRO83,001,WRO83,2023-11-28_13h22.58.257,Trial go no go,2020.2.10,Win32,60,,,,,,,,,,,,,,,,,0,,0,27,27,6,1,I,space,,
,,,,,,,,,,,,,,,WRO83,001,WRO83,2023-11-28_13h22.58.257,Trial go no go,2020.2.10,Win32,60,,,,,,,,,,,,,,,,space,1,0.3151,0,28,28,3,1,T,space,,
,,,,,,,,,,,,,,,WRO83,001,WRO83,2023-11-28_13h22.58.257,Trial go no go,2020.2.10,Win32,60,,,,,,,,,,,,,,,,space,1,0.3004,0,29,29,10,1,H,space,,
,,,,,,,,,,,,,,,WRO83,001,WRO83,2023-11-28_13h22.58.257,Trial go no go,2020.2.10,Win32,60,,,,,,,,,,,,,,,,space,1,0.3847,0,30,30,25,1,I,space,,
,,,,,,,,,,,,,,,WRO83,001,WRO83,2023-11-28_13h22.58.257,Trial go no go,2020.2.10,Win32,60,,,,,,,,,,,,,,,,space,1,0.3084,0,31,31,2,1,R,space,,
,,,,,,,,,,,,,,,WRO83,001,WRO83,2023-11-28_13h22.58.257,Trial go no go,2020.2.10,Win32,60,,,,,,,,,,,,,,,,,0,,0,32,32,33,1,V,space,,
,,,,,,,,,,,,,,,WRO83,001,WRO83,2023-11-28_13h22.58.257,Trial go no go,2020.2.10,Win32,60,,,,,,,,,,,,,,,,space,1,0.2843,0,33,33,46,1,F,space,,
,,,,,,,,,,,,,,,WRO83,001,WRO83,2023-11-28_13h22.58.257,Trial go no go,2020.2.10,Win32,60,,,,,,,,,,,,,,,,space,0,0.2563,0,34,34,9,1,X,none,,
,,,,,,,,,,,,,,,WRO83,001,WRO83,2023-11-28_13h22.58.257,Trial go no go,2020.2.10,Win32,60,,,,,,,,,,,,,,,,space,1,0.2981,0,35,35,32,1,Z,space,,
,,,,,,,,,,,,,,,WRO83,001,WRO83,2023-11-28_13h22.58.257,Trial go no go,2020.2.10,Win32,60,,,,,,,,,,,,,,,,space,0,0.2588,0,36,36,14,1,X,none,,
,,,,,,,,,,,,,,,WRO83,001,WRO83,2023-11-28_13h22.58.257,Trial go no go,2020.2.10,Win32,60,,,,,,,,,,,,,,,,space,1,0.3249,0,37,37,27,1,F,space,,
,,,,,,,,,,,,,,,WRO83,001,WRO83,2023-11-28_13h22.58.257,Trial go no go,2020.2.10,Win32,60,,,,,,,,,,,,,,,,space,1,0.2652,0,38,38,36,1,M,space,,
,,,,,,,,,,,,,,,WRO83,001,WRO83,2023-11-28_13h22.58.257,Trial go no go,2020.2.10,Win32,60,,,,,,,,,,,,,,,,space,1,0.3274,0,39,39,5,1,Y,space,,
,,,,,,,,,,,,,,,WRO83,001,WRO83,2023-11-28_13h22.58.257,Trial go no go,2020.2.10,Win32,60,,,,,,,,,,,,,,,,,1,,0,40,40,44,1,X,none,,
,,,,,,,,,,,,,,,WRO83,001,WRO83,2023-11-28_13h22.58.257,Trial go no go,2020.2.10,Win32,60,,,,,,,,,,,,,,,,space,1,0.2478,0,41,41,41,1,T,space,,
,,,,,,,,,,,,,,,WRO83,001,WRO83,2023-11-28_13h22.58.257,Trial go no go,2020.2.10,Win32,60,,,,,,,,,,,,,,,,space,1,0.2926,0,42,42,16,1,N,space,,
,,,,,,,,,,,,,,,WRO83,001,WRO83,2023-11-28_13h22.58.257,Trial go no go,2020.2.10,Win32,60,,,,,,,,,,,,,,,,space,1,0.2605,0,43,43,47,1,H,space,,
,,,,,,,,,,,,,,,WRO83,001,WRO83,2023-11-28_13h22.58.257,Trial go no go,2020.2.10,Win32,60,,,,,,,,,,,,,,,,space,1,0.2528,0,44,44,28,1,H,space,,
,,,,,,,,,,,,,,,WRO83,001,WRO83,2023-11-28_13h22.58.257,Trial go no go,2020.2.10,Win32,60,,,,,,,,,,,,,,,,space,1,0.3507,0,45,45,23,1,Y,space,,
,,,,,,,,,,,,,,,WRO83,001,WRO83,2023-11-28_13h22.58.257,Trial go no go,2020.2.10,Win32,60,,,,,,,,,,,,,,,,,1,,0,46,46,29,1,X,none,,
,,,,,,,,,,,,,,,WRO83,001,WRO83,2023-11-28_13h22.58.257,Trial go no go,2020.2.10,Win32,60,,,,,,,,,,,,,,,,space,1,0.2504,0,47,47,18,1,W,space,,
,,,,,,,,,,,,,,,WRO83,001,WRO83,2023-11-28_13h22.58.257,Trial go no go,2020.2.10,Win32,60,,,,,,,,,,,,,,,,,1,,0,48,48,39,1,X,none,,
,,,,,,,,,,,,,,,WRO83,001,WRO83,2023-11-28_13h22.58.257,Trial go no go,2020.2.10,Win32,60,,,,,,,,,,,,,,,,,1,,0,49,49,49,1,X,none,,
,,,,,,,,,,,,,,,WRO83,001,WRO83,2023-11-28_13h22.58.257,Trial go no go,2020.2.10,Win32,60,,,,,,,,,,,,,,,,,,,,,,,,,,space,8.987
