resp_Welcome.keys,resp_Welcome.rt,resp_Instr_Intro.keys,resp_Instr_Intro.rt,resp_Instr_Prac1.keys,resp_Instr_Prac1.rt,resp_trial_Prac1.keys,resp_trial_Prac1.corr,prac_trials.thisRepN,prac_trials.thisTrialN,prac_trials.thisN,prac_trials.thisIndex,prac_trials.ran,stimulus_prac1,corrAns_prac1,participant,session,indywidualny kod,date,expName,psychopyVersion,OS,frameRate,fbclid,resp_trial_Prac1.rt,resp_Instr_Test1.keys,resp_Instr_Test1.rt,resp_trial_Test1.keys,resp_trial_Test1.corr,resp_trial_Test1.rt,test1trial.thisRepN,test1trial.thisTrialN,test1trial.thisN,test1trial.thisIndex,test1trial.ran,stimulus_test1,corrAns_test1,resp_Instr_Test2.keys,resp_Instr_Test2.rt,key_resp_Test2.keys,key_resp_Test2.corr,key_resp_Test2.rt,test2trial.thisRepN,test2trial.thisTrialN,test2trial.thisN,test2trial.thisIndex,test2trial.ran,stimulus_test2,corrAns_test2,resp_theEnd.keys,resp_theEnd.rt
space,12.8105,space,13.4453,space,8.4481,,1,0,0,0,9,1,V,none,WRO98,001,,2024-03-29_09h31.00.437,Trial go no go,2020.2.10,MacIntel,60,IwAR0pAWA1Vt_or_FOWxPLUBlYx_YQcCkQbQ5clVE6z183FrxHDb6s-oH-UUs_aem_AU98Jn57teZ2mE8WNm6k6JVfWu8KwrpszyJ5kAbFJzz3M9ta01EgO5n_2TPpHHTOettCwNs63-TBQFH8GyJQhQnv,,,,,,,,,,,,,,,,,,,,,,,,,,,
,,,,,,space,1,0,1,1,12,1,X,space,WRO98,001,,2024-03-29_09h31.00.437,Trial go no go,2020.2.10,MacIntel,60,IwAR0pAWA1Vt_or_FOWxPLUBlYx_YQcCkQbQ5clVE6z183FrxHDb6s-oH-UUs_aem_AU98Jn57teZ2mE8WNm6k6JVfWu8KwrpszyJ5kAbFJzz3M9ta01EgO5n_2TPpHHTOettCwNs63-TBQFH8GyJQhQnv,0.5675,,,,,,,,,,,,,,,,,,,,,,,,,,
,,,,,,space,1,0,2,2,5,1,X,space,WRO98,001,,2024-03-29_09h31.00.437,Trial go no go,2020.2.10,MacIntel,60,IwAR0pAWA1Vt_or_FOWxPLUBlYx_YQcCkQbQ5clVE6z183FrxHDb6s-oH-UUs_aem_AU98Jn57teZ2mE8WNm6k6JVfWu8KwrpszyJ5kAbFJzz3M9ta01EgO5n_2TPpHHTOettCwNs63-TBQFH8GyJQhQnv,0.4568,,,,,,,,,,,,,,,,,,,,,,,,,,
,,,,,,space,1,0,3,3,7,1,X,space,WRO98,001,,2024-03-29_09h31.00.437,Trial go no go,2020.2.10,MacIntel,60,IwAR0pAWA1Vt_or_FOWxPLUBlYx_YQcCkQbQ5clVE6z183FrxHDb6s-oH-UUs_aem_AU98Jn57teZ2mE8WNm6k6JVfWu8KwrpszyJ5kAbFJzz3M9ta01EgO5n_2TPpHHTOettCwNs63-TBQFH8GyJQhQnv,0.351,,,,,,,,,,,,,,,,,,,,,,,,,,
,,,,,,,1,0,4,4,4,1,W,none,WRO98,001,,2024-03-29_09h31.00.437,Trial go no go,2020.2.10,MacIntel,60,IwAR0pAWA1Vt_or_FOWxPLUBlYx_YQcCkQbQ5clVE6z183FrxHDb6s-oH-UUs_aem_AU98Jn57teZ2mE8WNm6k6JVfWu8KwrpszyJ5kAbFJzz3M9ta01EgO5n_2TPpHHTOettCwNs63-TBQFH8GyJQhQnv,,,,,,,,,,,,,,,,,,,,,,,,,,,
,,,,,,space,1,0,5,5,6,1,X,space,WRO98,001,,2024-03-29_09h31.00.437,Trial go no go,2020.2.10,MacIntel,60,IwAR0pAWA1Vt_or_FOWxPLUBlYx_YQcCkQbQ5clVE6z183FrxHDb6s-oH-UUs_aem_AU98Jn57teZ2mE8WNm6k6JVfWu8KwrpszyJ5kAbFJzz3M9ta01EgO5n_2TPpHHTOettCwNs63-TBQFH8GyJQhQnv,0.4099,,,,,,,,,,,,,,,,,,,,,,,,,,
,,,,,,space,1,0,6,6,8,1,X,space,WRO98,001,,2024-03-29_09h31.00.437,Trial go no go,2020.2.10,MacIntel,60,IwAR0pAWA1Vt_or_FOWxPLUBlYx_YQcCkQbQ5clVE6z183FrxHDb6s-oH-UUs_aem_AU98Jn57teZ2mE8WNm6k6JVfWu8KwrpszyJ5kAbFJzz3M9ta01EgO5n_2TPpHHTOettCwNs63-TBQFH8GyJQhQnv,0.418,,,,,,,,,,,,,,,,,,,,,,,,,,
,,,,,,space,1,0,7,7,10,1,X,space,WRO98,001,,2024-03-29_09h31.00.437,Trial go no go,2020.2.10,MacIntel,60,IwAR0pAWA1Vt_or_FOWxPLUBlYx_YQcCkQbQ5clVE6z183FrxHDb6s-oH-UUs_aem_AU98Jn57teZ2mE8WNm6k6JVfWu8KwrpszyJ5kAbFJzz3M9ta01EgO5n_2TPpHHTOettCwNs63-TBQFH8GyJQhQnv,0.3677,,,,,,,,,,,,,,,,,,,,,,,,,,
,,,,,,space,1,0,8,8,13,1,X,space,WRO98,001,,2024-03-29_09h31.00.437,Trial go no go,2020.2.10,MacIntel,60,IwAR0pAWA1Vt_or_FOWxPLUBlYx_YQcCkQbQ5clVE6z183FrxHDb6s-oH-UUs_aem_AU98Jn57teZ2mE8WNm6k6JVfWu8KwrpszyJ5kAbFJzz3M9ta01EgO5n_2TPpHHTOettCwNs63-TBQFH8GyJQhQnv,0.389,,,,,,,,,,,,,,,,,,,,,,,,,,
,,,,,,space,1,0,9,9,0,1,X,space,WRO98,001,,2024-03-29_09h31.00.437,Trial go no go,2020.2.10,MacIntel,60,IwAR0pAWA1Vt_or_FOWxPLUBlYx_YQcCkQbQ5clVE6z183FrxHDb6s-oH-UUs_aem_AU98Jn57teZ2mE8WNm6k6JVfWu8KwrpszyJ5kAbFJzz3M9ta01EgO5n_2TPpHHTOettCwNs63-TBQFH8GyJQhQnv,0.3345,,,,,,,,,,,,,,,,,,,,,,,,,,
,,,,,,space,1,0,10,10,3,1,X,space,WRO98,001,,2024-03-29_09h31.00.437,Trial go no go,2020.2.10,MacIntel,60,IwAR0pAWA1Vt_or_FOWxPLUBlYx_YQcCkQbQ5clVE6z183FrxHDb6s-oH-UUs_aem_AU98Jn57teZ2mE8WNm6k6JVfWu8KwrpszyJ5kAbFJzz3M9ta01EgO5n_2TPpHHTOettCwNs63-TBQFH8GyJQhQnv,0.351,,,,,,,,,,,,,,,,,,,,,,,,,,
,,,,,,,1,0,11,11,14,1,K,none,WRO98,001,,2024-03-29_09h31.00.437,Trial go no go,2020.2.10,MacIntel,60,IwAR0pAWA1Vt_or_FOWxPLUBlYx_YQcCkQbQ5clVE6z183FrxHDb6s-oH-UUs_aem_AU98Jn57teZ2mE8WNm6k6JVfWu8KwrpszyJ5kAbFJzz3M9ta01EgO5n_2TPpHHTOettCwNs63-TBQFH8GyJQhQnv,,,,,,,,,,,,,,,,,,,,,,,,,,,
,,,,,,space,1,0,12,12,1,1,X,space,WRO98,001,,2024-03-29_09h31.00.437,Trial go no go,2020.2.10,MacIntel,60,IwAR0pAWA1Vt_or_FOWxPLUBlYx_YQcCkQbQ5clVE6z183FrxHDb6s-oH-UUs_aem_AU98Jn57teZ2mE8WNm6k6JVfWu8KwrpszyJ5kAbFJzz3M9ta01EgO5n_2TPpHHTOettCwNs63-TBQFH8GyJQhQnv,0.4132,,,,,,,,,,,,,,,,,,,,,,,,,,
,,,,,,space,1,0,13,13,11,1,X,space,WRO98,001,,2024-03-29_09h31.00.437,Trial go no go,2020.2.10,MacIntel,60,IwAR0pAWA1Vt_or_FOWxPLUBlYx_YQcCkQbQ5clVE6z183FrxHDb6s-oH-UUs_aem_AU98Jn57teZ2mE8WNm6k6JVfWu8KwrpszyJ5kAbFJzz3M9ta01EgO5n_2TPpHHTOettCwNs63-TBQFH8GyJQhQnv,0.3547,,,,,,,,,,,,,,,,,,,,,,,,,,
,,,,,,space,1,0,14,14,2,1,X,space,WRO98,001,,2024-03-29_09h31.00.437,Trial go no go,2020.2.10,MacIntel,60,IwAR0pAWA1Vt_or_FOWxPLUBlYx_YQcCkQbQ5clVE6z183FrxHDb6s-oH-UUs_aem_AU98Jn57teZ2mE8WNm6k6JVfWu8KwrpszyJ5kAbFJzz3M9ta01EgO5n_2TPpHHTOettCwNs63-TBQFH8GyJQhQnv,0.3555,,,,,,,,,,,,,,,,,,,,,,,,,,
,,,,,,,,,,,,,,,WRO98,001,,2024-03-29_09h31.00.437,Trial go no go,2020.2.10,MacIntel,60,IwAR0pAWA1Vt_or_FOWxPLUBlYx_YQcCkQbQ5clVE6z183FrxHDb6s-oH-UUs_aem_AU98Jn57teZ2mE8WNm6k6JVfWu8KwrpszyJ5kAbFJzz3M9ta01EgO5n_2TPpHHTOettCwNs63-TBQFH8GyJQhQnv,,space,5.6238,space,1,0.3542,0,0,0,46,1,X,space,,,,,,,,,,,,,,
,,,,,,,,,,,,,,,WRO98,001,,2024-03-29_09h31.00.437,Trial go no go,2020.2.10,MacIntel,60,IwAR0pAWA1Vt_or_FOWxPLUBlYx_YQcCkQbQ5clVE6z183FrxHDb6s-oH-UUs_aem_AU98Jn57teZ2mE8WNm6k6JVfWu8KwrpszyJ5kAbFJzz3M9ta01EgO5n_2TPpHHTOettCwNs63-TBQFH8GyJQhQnv,,,,space,1,0.4078,0,1,1,12,1,X,space,,,,,,,,,,,,,,
,,,,,,,,,,,,,,,WRO98,001,,2024-03-29_09h31.00.437,Trial go no go,2020.2.10,MacIntel,60,IwAR0pAWA1Vt_or_FOWxPLUBlYx_YQcCkQbQ5clVE6z183FrxHDb6s-oH-UUs_aem_AU98Jn57teZ2mE8WNm6k6JVfWu8KwrpszyJ5kAbFJzz3M9ta01EgO5n_2TPpHHTOettCwNs63-TBQFH8GyJQhQnv,,,,,1,,0,2,2,4,1,V,none,,,,,,,,,,,,,,
,,,,,,,,,,,,,,,WRO98,001,,2024-03-29_09h31.00.437,Trial go no go,2020.2.10,MacIntel,60,IwAR0pAWA1Vt_or_FOWxPLUBlYx_YQcCkQbQ5clVE6z183FrxHDb6s-oH-UUs_aem_AU98Jn57teZ2mE8WNm6k6JVfWu8KwrpszyJ5kAbFJzz3M9ta01EgO5n_2TPpHHTOettCwNs63-TBQFH8GyJQhQnv,,,,space,1,0.3031,0,3,3,42,1,X,space,,,,,,,,,,,,,,
,,,,,,,,,,,,,,,WRO98,001,,2024-03-29_09h31.00.437,Trial go no go,2020.2.10,MacIntel,60,IwAR0pAWA1Vt_or_FOWxPLUBlYx_YQcCkQbQ5clVE6z183FrxHDb6s-oH-UUs_aem_AU98Jn57teZ2mE8WNm6k6JVfWu8KwrpszyJ5kAbFJzz3M9ta01EgO5n_2TPpHHTOettCwNs63-TBQFH8GyJQhQnv,,,,,1,,0,4,4,29,1,T,none,,,,,,,,,,,,,,
,,,,,,,,,,,,,,,WRO98,001,,2024-03-29_09h31.00.437,Trial go no go,2020.2.10,MacIntel,60,IwAR0pAWA1Vt_or_FOWxPLUBlYx_YQcCkQbQ5clVE6z183FrxHDb6s-oH-UUs_aem_AU98Jn57teZ2mE8WNm6k6JVfWu8KwrpszyJ5kAbFJzz3M9ta01EgO5n_2TPpHHTOettCwNs63-TBQFH8GyJQhQnv,,,,,1,,0,5,5,49,1,E,none,,,,,,,,,,,,,,
,,,,,,,,,,,,,,,WRO98,001,,2024-03-29_09h31.00.437,Trial go no go,2020.2.10,MacIntel,60,IwAR0pAWA1Vt_or_FOWxPLUBlYx_YQcCkQbQ5clVE6z183FrxHDb6s-oH-UUs_aem_AU98Jn57teZ2mE8WNm6k6JVfWu8KwrpszyJ5kAbFJzz3M9ta01EgO5n_2TPpHHTOettCwNs63-TBQFH8GyJQhQnv,,,,space,1,0.3289,0,6,6,33,1,X,space,,,,,,,,,,,,,,
,,,,,,,,,,,,,,,WRO98,001,,2024-03-29_09h31.00.437,Trial go no go,2020.2.10,MacIntel,60,IwAR0pAWA1Vt_or_FOWxPLUBlYx_YQcCkQbQ5clVE6z183FrxHDb6s-oH-UUs_aem_AU98Jn57teZ2mE8WNm6k6JVfWu8KwrpszyJ5kAbFJzz3M9ta01EgO5n_2TPpHHTOettCwNs63-TBQFH8GyJQhQnv,,,,space,1,0.4318,0,7,7,26,1,X,space,,,,,,,,,,,,,,
,,,,,,,,,,,,,,,WRO98,001,,2024-03-29_09h31.00.437,Trial go no go,2020.2.10,MacIntel,60,IwAR0pAWA1Vt_or_FOWxPLUBlYx_YQcCkQbQ5clVE6z183FrxHDb6s-oH-UUs_aem_AU98Jn57teZ2mE8WNm6k6JVfWu8KwrpszyJ5kAbFJzz3M9ta01EgO5n_2TPpHHTOettCwNs63-TBQFH8GyJQhQnv,,,,space,1,0.3417,0,8,8,3,1,X,space,,,,,,,,,,,,,,
,,,,,,,,,,,,,,,WRO98,001,,2024-03-29_09h31.00.437,Trial go no go,2020.2.10,MacIntel,60,IwAR0pAWA1Vt_or_FOWxPLUBlYx_YQcCkQbQ5clVE6z183FrxHDb6s-oH-UUs_aem_AU98Jn57teZ2mE8WNm6k6JVfWu8KwrpszyJ5kAbFJzz3M9ta01EgO5n_2TPpHHTOettCwNs63-TBQFH8GyJQhQnv,,,,space,1,0.3335,0,9,9,45,1,X,space,,,,,,,,,,,,,,
,,,,,,,,,,,,,,,WRO98,001,,2024-03-29_09h31.00.437,Trial go no go,2020.2.10,MacIntel,60,IwAR0pAWA1Vt_or_FOWxPLUBlYx_YQcCkQbQ5clVE6z183FrxHDb6s-oH-UUs_aem_AU98Jn57teZ2mE8WNm6k6JVfWu8KwrpszyJ5kAbFJzz3M9ta01EgO5n_2TPpHHTOettCwNs63-TBQFH8GyJQhQnv,,,,space,1,0.3202,0,10,10,13,1,X,space,,,,,,,,,,,,,,
,,,,,,,,,,,,,,,WRO98,001,,2024-03-29_09h31.00.437,Trial go no go,2020.2.10,MacIntel,60,IwAR0pAWA1Vt_or_FOWxPLUBlYx_YQcCkQbQ5clVE6z183FrxHDb6s-oH-UUs_aem_AU98Jn57teZ2mE8WNm6k6JVfWu8KwrpszyJ5kAbFJzz3M9ta01EgO5n_2TPpHHTOettCwNs63-TBQFH8GyJQhQnv,,,,space,0,0.2929,0,11,11,39,1,M,none,,,,,,,,,,,,,,
,,,,,,,,,,,,,,,WRO98,001,,2024-03-29_09h31.00.437,Trial go no go,2020.2.10,MacIntel,60,IwAR0pAWA1Vt_or_FOWxPLUBlYx_YQcCkQbQ5clVE6z183FrxHDb6s-oH-UUs_aem_AU98Jn57teZ2mE8WNm6k6JVfWu8KwrpszyJ5kAbFJzz3M9ta01EgO5n_2TPpHHTOettCwNs63-TBQFH8GyJQhQnv,,,,space,1,0.5012,0,12,12,25,1,X,space,,,,,,,,,,,,,,
,,,,,,,,,,,,,,,WRO98,001,,2024-03-29_09h31.00.437,Trial go no go,2020.2.10,MacIntel,60,IwAR0pAWA1Vt_or_FOWxPLUBlYx_YQcCkQbQ5clVE6z183FrxHDb6s-oH-UUs_aem_AU98Jn57teZ2mE8WNm6k6JVfWu8KwrpszyJ5kAbFJzz3M9ta01EgO5n_2TPpHHTOettCwNs63-TBQFH8GyJQhQnv,,,,,1,,0,13,13,44,1,F,none,,,,,,,,,,,,,,
,,,,,,,,,,,,,,,WRO98,001,,2024-03-29_09h31.00.437,Trial go no go,2020.2.10,MacIntel,60,IwAR0pAWA1Vt_or_FOWxPLUBlYx_YQcCkQbQ5clVE6z183FrxHDb6s-oH-UUs_aem_AU98Jn57teZ2mE8WNm6k6JVfWu8KwrpszyJ5kAbFJzz3M9ta01EgO5n_2TPpHHTOettCwNs63-TBQFH8GyJQhQnv,,,,,1,,0,14,14,19,1,K,none,,,,,,,,,,,,,,
,,,,,,,,,,,,,,,WRO98,001,,2024-03-29_09h31.00.437,Trial go no go,2020.2.10,MacIntel,60,IwAR0pAWA1Vt_or_FOWxPLUBlYx_YQcCkQbQ5clVE6z183FrxHDb6s-oH-UUs_aem_AU98Jn57teZ2mE8WNm6k6JVfWu8KwrpszyJ5kAbFJzz3M9ta01EgO5n_2TPpHHTOettCwNs63-TBQFH8GyJQhQnv,,,,space,1,0.3606,0,15,15,28,1,X,space,,,,,,,,,,,,,,
,,,,,,,,,,,,,,,WRO98,001,,2024-03-29_09h31.00.437,Trial go no go,2020.2.10,MacIntel,60,IwAR0pAWA1Vt_or_FOWxPLUBlYx_YQcCkQbQ5clVE6z183FrxHDb6s-oH-UUs_aem_AU98Jn57teZ2mE8WNm6k6JVfWu8KwrpszyJ5kAbFJzz3M9ta01EgO5n_2TPpHHTOettCwNs63-TBQFH8GyJQhQnv,,,,,1,,0,16,16,24,1,H,none,,,,,,,,,,,,,,
,,,,,,,,,,,,,,,WRO98,001,,2024-03-29_09h31.00.437,Trial go no go,2020.2.10,MacIntel,60,IwAR0pAWA1Vt_or_FOWxPLUBlYx_YQcCkQbQ5clVE6z183FrxHDb6s-oH-UUs_aem_AU98Jn57teZ2mE8WNm6k6JVfWu8KwrpszyJ5kAbFJzz3M9ta01EgO5n_2TPpHHTOettCwNs63-TBQFH8GyJQhQnv,,,,space,1,0.2971,0,17,17,1,1,X,space,,,,,,,,,,,,,,
,,,,,,,,,,,,,,,WRO98,001,,2024-03-29_09h31.00.437,Trial go no go,2020.2.10,MacIntel,60,IwAR0pAWA1Vt_or_FOWxPLUBlYx_YQcCkQbQ5clVE6z183FrxHDb6s-oH-UUs_aem_AU98Jn57teZ2mE8WNm6k6JVfWu8KwrpszyJ5kAbFJzz3M9ta01EgO5n_2TPpHHTOettCwNs63-TBQFH8GyJQhQnv,,,,space,1,0.4318,0,18,18,20,1,X,space,,,,,,,,,,,,,,
,,,,,,,,,,,,,,,WRO98,001,,2024-03-29_09h31.00.437,Trial go no go,2020.2.10,MacIntel,60,IwAR0pAWA1Vt_or_FOWxPLUBlYx_YQcCkQbQ5clVE6z183FrxHDb6s-oH-UUs_aem_AU98Jn57teZ2mE8WNm6k6JVfWu8KwrpszyJ5kAbFJzz3M9ta01EgO5n_2TPpHHTOettCwNs63-TBQFH8GyJQhQnv,,,,space,1,0.3348,0,19,19,7,1,X,space,,,,,,,,,,,,,,
,,,,,,,,,,,,,,,WRO98,001,,2024-03-29_09h31.00.437,Trial go no go,2020.2.10,MacIntel,60,IwAR0pAWA1Vt_or_FOWxPLUBlYx_YQcCkQbQ5clVE6z183FrxHDb6s-oH-UUs_aem_AU98Jn57teZ2mE8WNm6k6JVfWu8KwrpszyJ5kAbFJzz3M9ta01EgO5n_2TPpHHTOettCwNs63-TBQFH8GyJQhQnv,,,,space,1,0.2744,0,20,20,36,1,X,space,,,,,,,,,,,,,,
,,,,,,,,,,,,,,,WRO98,001,,2024-03-29_09h31.00.437,Trial go no go,2020.2.10,MacIntel,60,IwAR0pAWA1Vt_or_FOWxPLUBlYx_YQcCkQbQ5clVE6z183FrxHDb6s-oH-UUs_aem_AU98Jn57teZ2mE8WNm6k6JVfWu8KwrpszyJ5kAbFJzz3M9ta01EgO5n_2TPpHHTOettCwNs63-TBQFH8GyJQhQnv,,,,space,1,0.3317,0,21,21,15,1,X,space,,,,,,,,,,,,,,
,,,,,,,,,,,,,,,WRO98,001,,2024-03-29_09h31.00.437,Trial go no go,2020.2.10,MacIntel,60,IwAR0pAWA1Vt_or_FOWxPLUBlYx_YQcCkQbQ5clVE6z183FrxHDb6s-oH-UUs_aem_AU98Jn57teZ2mE8WNm6k6JVfWu8KwrpszyJ5kAbFJzz3M9ta01EgO5n_2TPpHHTOettCwNs63-TBQFH8GyJQhQnv,,,,space,1,0.3166,0,22,22,47,1,X,space,,,,,,,,,,,,,,
,,,,,,,,,,,,,,,WRO98,001,,2024-03-29_09h31.00.437,Trial go no go,2020.2.10,MacIntel,60,IwAR0pAWA1Vt_or_FOWxPLUBlYx_YQcCkQbQ5clVE6z183FrxHDb6s-oH-UUs_aem_AU98Jn57teZ2mE8WNm6k6JVfWu8KwrpszyJ5kAbFJzz3M9ta01EgO5n_2TPpHHTOettCwNs63-TBQFH8GyJQhQnv,,,,space,1,0.3002,0,23,23,17,1,X,space,,,,,,,,,,,,,,
,,,,,,,,,,,,,,,WRO98,001,,2024-03-29_09h31.00.437,Trial go no go,2020.2.10,MacIntel,60,IwAR0pAWA1Vt_or_FOWxPLUBlYx_YQcCkQbQ5clVE6z183FrxHDb6s-oH-UUs_aem_AU98Jn57teZ2mE8WNm6k6JVfWu8KwrpszyJ5kAbFJzz3M9ta01EgO5n_2TPpHHTOettCwNs63-TBQFH8GyJQhQnv,,,,space,0,0.301,0,24,24,9,1,W,none,,,,,,,,,,,,,,
,,,,,,,,,,,,,,,WRO98,001,,2024-03-29_09h31.00.437,Trial go no go,2020.2.10,MacIntel,60,IwAR0pAWA1Vt_or_FOWxPLUBlYx_YQcCkQbQ5clVE6z183FrxHDb6s-oH-UUs_aem_AU98Jn57teZ2mE8WNm6k6JVfWu8KwrpszyJ5kAbFJzz3M9ta01EgO5n_2TPpHHTOettCwNs63-TBQFH8GyJQhQnv,,,,space,1,0.3459,0,25,25,27,1,X,space,,,,,,,,,,,,,,
,,,,,,,,,,,,,,,WRO98,001,,2024-03-29_09h31.00.437,Trial go no go,2020.2.10,MacIntel,60,IwAR0pAWA1Vt_or_FOWxPLUBlYx_YQcCkQbQ5clVE6z183FrxHDb6s-oH-UUs_aem_AU98Jn57teZ2mE8WNm6k6JVfWu8KwrpszyJ5kAbFJzz3M9ta01EgO5n_2TPpHHTOettCwNs63-TBQFH8GyJQhQnv,,,,space,1,0.4157,0,26,26,23,1,X,space,,,,,,,,,,,,,,
,,,,,,,,,,,,,,,WRO98,001,,2024-03-29_09h31.00.437,Trial go no go,2020.2.10,MacIntel,60,IwAR0pAWA1Vt_or_FOWxPLUBlYx_YQcCkQbQ5clVE6z183FrxHDb6s-oH-UUs_aem_AU98Jn57teZ2mE8WNm6k6JVfWu8KwrpszyJ5kAbFJzz3M9ta01EgO5n_2TPpHHTOettCwNs63-TBQFH8GyJQhQnv,,,,space,1,0.3051,0,27,27,41,1,X,space,,,,,,,,,,,,,,
,,,,,,,,,,,,,,,WRO98,001,,2024-03-29_09h31.00.437,Trial go no go,2020.2.10,MacIntel,60,IwAR0pAWA1Vt_or_FOWxPLUBlYx_YQcCkQbQ5clVE6z183FrxHDb6s-oH-UUs_aem_AU98Jn57teZ2mE8WNm6k6JVfWu8KwrpszyJ5kAbFJzz3M9ta01EgO5n_2TPpHHTOettCwNs63-TBQFH8GyJQhQnv,,,,space,1,0.3313,0,28,28,38,1,X,space,,,,,,,,,,,,,,
,,,,,,,,,,,,,,,WRO98,001,,2024-03-29_09h31.00.437,Trial go no go,2020.2.10,MacIntel,60,IwAR0pAWA1Vt_or_FOWxPLUBlYx_YQcCkQbQ5clVE6z183FrxHDb6s-oH-UUs_aem_AU98Jn57teZ2mE8WNm6k6JVfWu8KwrpszyJ5kAbFJzz3M9ta01EgO5n_2TPpHHTOettCwNs63-TBQFH8GyJQhQnv,,,,space,1,0.3041,0,29,29,32,1,X,space,,,,,,,,,,,,,,
,,,,,,,,,,,,,,,WRO98,001,,2024-03-29_09h31.00.437,Trial go no go,2020.2.10,MacIntel,60,IwAR0pAWA1Vt_or_FOWxPLUBlYx_YQcCkQbQ5clVE6z183FrxHDb6s-oH-UUs_aem_AU98Jn57teZ2mE8WNm6k6JVfWu8KwrpszyJ5kAbFJzz3M9ta01EgO5n_2TPpHHTOettCwNs63-TBQFH8GyJQhQnv,,,,space,0,0.2743,0,30,30,14,1,Y,none,,,,,,,,,,,,,,
,,,,,,,,,,,,,,,WRO98,001,,2024-03-29_09h31.00.437,Trial go no go,2020.2.10,MacIntel,60,IwAR0pAWA1Vt_or_FOWxPLUBlYx_YQcCkQbQ5clVE6z183FrxHDb6s-oH-UUs_aem_AU98Jn57teZ2mE8WNm6k6JVfWu8KwrpszyJ5kAbFJzz3M9ta01EgO5n_2TPpHHTOettCwNs63-TBQFH8GyJQhQnv,,,,space,1,0.3518,0,31,31,0,1,X,space,,,,,,,,,,,,,,
,,,,,,,,,,,,,,,WRO98,001,,2024-03-29_09h31.00.437,Trial go no go,2020.2.10,MacIntel,60,IwAR0pAWA1Vt_or_FOWxPLUBlYx_YQcCkQbQ5clVE6z183FrxHDb6s-oH-UUs_aem_AU98Jn57teZ2mE8WNm6k6JVfWu8KwrpszyJ5kAbFJzz3M9ta01EgO5n_2TPpHHTOettCwNs63-TBQFH8GyJQhQnv,,,,space,1,0.3711,0,32,32,40,1,X,space,,,,,,,,,,,,,,
,,,,,,,,,,,,,,,WRO98,001,,2024-03-29_09h31.00.437,Trial go no go,2020.2.10,MacIntel,60,IwAR0pAWA1Vt_or_FOWxPLUBlYx_YQcCkQbQ5clVE6z183FrxHDb6s-oH-UUs_aem_AU98Jn57teZ2mE8WNm6k6JVfWu8KwrpszyJ5kAbFJzz3M9ta01EgO5n_2TPpHHTOettCwNs63-TBQFH8GyJQhQnv,,,,space,1,0.3759,0,33,33,31,1,X,space,,,,,,,,,,,,,,
,,,,,,,,,,,,,,,WRO98,001,,2024-03-29_09h31.00.437,Trial go no go,2020.2.10,MacIntel,60,IwAR0pAWA1Vt_or_FOWxPLUBlYx_YQcCkQbQ5clVE6z183FrxHDb6s-oH-UUs_aem_AU98Jn57teZ2mE8WNm6k6JVfWu8KwrpszyJ5kAbFJzz3M9ta01EgO5n_2TPpHHTOettCwNs63-TBQFH8GyJQhQnv,,,,space,1,0.3735,0,34,34,21,1,X,space,,,,,,,,,,,,,,
,,,,,,,,,,,,,,,WRO98,001,,2024-03-29_09h31.00.437,Trial go no go,2020.2.10,MacIntel,60,IwAR0pAWA1Vt_or_FOWxPLUBlYx_YQcCkQbQ5clVE6z183FrxHDb6s-oH-UUs_aem_AU98Jn57teZ2mE8WNm6k6JVfWu8KwrpszyJ5kAbFJzz3M9ta01EgO5n_2TPpHHTOettCwNs63-TBQFH8GyJQhQnv,,,,space,1,0.3565,0,35,35,35,1,X,space,,,,,,,,,,,,,,
,,,,,,,,,,,,,,,WRO98,001,,2024-03-29_09h31.00.437,Trial go no go,2020.2.10,MacIntel,60,IwAR0pAWA1Vt_or_FOWxPLUBlYx_YQcCkQbQ5clVE6z183FrxHDb6s-oH-UUs_aem_AU98Jn57teZ2mE8WNm6k6JVfWu8KwrpszyJ5kAbFJzz3M9ta01EgO5n_2TPpHHTOettCwNs63-TBQFH8GyJQhQnv,,,,space,1,0.3708,0,36,36,37,1,X,space,,,,,,,,,,,,,,
,,,,,,,,,,,,,,,WRO98,001,,2024-03-29_09h31.00.437,Trial go no go,2020.2.10,MacIntel,60,IwAR0pAWA1Vt_or_FOWxPLUBlYx_YQcCkQbQ5clVE6z183FrxHDb6s-oH-UUs_aem_AU98Jn57teZ2mE8WNm6k6JVfWu8KwrpszyJ5kAbFJzz3M9ta01EgO5n_2TPpHHTOettCwNs63-TBQFH8GyJQhQnv,,,,space,1,0.309,0,37,37,2,1,X,space,,,,,,,,,,,,,,
,,,,,,,,,,,,,,,WRO98,001,,2024-03-29_09h31.00.437,Trial go no go,2020.2.10,MacIntel,60,IwAR0pAWA1Vt_or_FOWxPLUBlYx_YQcCkQbQ5clVE6z183FrxHDb6s-oH-UUs_aem_AU98Jn57teZ2mE8WNm6k6JVfWu8KwrpszyJ5kAbFJzz3M9ta01EgO5n_2TPpHHTOettCwNs63-TBQFH8GyJQhQnv,,,,space,1,0.3085,0,38,38,10,1,X,space,,,,,,,,,,,,,,
,,,,,,,,,,,,,,,WRO98,001,,2024-03-29_09h31.00.437,Trial go no go,2020.2.10,MacIntel,60,IwAR0pAWA1Vt_or_FOWxPLUBlYx_YQcCkQbQ5clVE6z183FrxHDb6s-oH-UUs_aem_AU98Jn57teZ2mE8WNm6k6JVfWu8KwrpszyJ5kAbFJzz3M9ta01EgO5n_2TPpHHTOettCwNs63-TBQFH8GyJQhQnv,,,,space,1,0.3402,0,39,39,11,1,X,space,,,,,,,,,,,,,,
,,,,,,,,,,,,,,,WRO98,001,,2024-03-29_09h31.00.437,Trial go no go,2020.2.10,MacIntel,60,IwAR0pAWA1Vt_or_FOWxPLUBlYx_YQcCkQbQ5clVE6z183FrxHDb6s-oH-UUs_aem_AU98Jn57teZ2mE8WNm6k6JVfWu8KwrpszyJ5kAbFJzz3M9ta01EgO5n_2TPpHHTOettCwNs63-TBQFH8GyJQhQnv,,,,space,1,0.3321,0,40,40,30,1,X,space,,,,,,,,,,,,,,
,,,,,,,,,,,,,,,WRO98,001,,2024-03-29_09h31.00.437,Trial go no go,2020.2.10,MacIntel,60,IwAR0pAWA1Vt_or_FOWxPLUBlYx_YQcCkQbQ5clVE6z183FrxHDb6s-oH-UUs_aem_AU98Jn57teZ2mE8WNm6k6JVfWu8KwrpszyJ5kAbFJzz3M9ta01EgO5n_2TPpHHTOettCwNs63-TBQFH8GyJQhQnv,,,,space,1,0.3235,0,41,41,43,1,X,space,,,,,,,,,,,,,,
,,,,,,,,,,,,,,,WRO98,001,,2024-03-29_09h31.00.437,Trial go no go,2020.2.10,MacIntel,60,IwAR0pAWA1Vt_or_FOWxPLUBlYx_YQcCkQbQ5clVE6z183FrxHDb6s-oH-UUs_aem_AU98Jn57teZ2mE8WNm6k6JVfWu8KwrpszyJ5kAbFJzz3M9ta01EgO5n_2TPpHHTOettCwNs63-TBQFH8GyJQhQnv,,,,,1,,0,42,42,34,1,N,none,,,,,,,,,,,,,,
,,,,,,,,,,,,,,,WRO98,001,,2024-03-29_09h31.00.437,Trial go no go,2020.2.10,MacIntel,60,IwAR0pAWA1Vt_or_FOWxPLUBlYx_YQcCkQbQ5clVE6z183FrxHDb6s-oH-UUs_aem_AU98Jn57teZ2mE8WNm6k6JVfWu8KwrpszyJ5kAbFJzz3M9ta01EgO5n_2TPpHHTOettCwNs63-TBQFH8GyJQhQnv,,,,space,1,0.2821,0,43,43,18,1,X,space,,,,,,,,,,,,,,
,,,,,,,,,,,,,,,WRO98,001,,2024-03-29_09h31.00.437,Trial go no go,2020.2.10,MacIntel,60,IwAR0pAWA1Vt_or_FOWxPLUBlYx_YQcCkQbQ5clVE6z183FrxHDb6s-oH-UUs_aem_AU98Jn57teZ2mE8WNm6k6JVfWu8KwrpszyJ5kAbFJzz3M9ta01EgO5n_2TPpHHTOettCwNs63-TBQFH8GyJQhQnv,,,,space,1,0.2986,0,44,44,8,1,X,space,,,,,,,,,,,,,,
,,,,,,,,,,,,,,,WRO98,001,,2024-03-29_09h31.00.437,Trial go no go,2020.2.10,MacIntel,60,IwAR0pAWA1Vt_or_FOWxPLUBlYx_YQcCkQbQ5clVE6z183FrxHDb6s-oH-UUs_aem_AU98Jn57teZ2mE8WNm6k6JVfWu8KwrpszyJ5kAbFJzz3M9ta01EgO5n_2TPpHHTOettCwNs63-TBQFH8GyJQhQnv,,,,space,1,0.2498,0,45,45,16,1,X,space,,,,,,,,,,,,,,
,,,,,,,,,,,,,,,WRO98,001,,2024-03-29_09h31.00.437,Trial go no go,2020.2.10,MacIntel,60,IwAR0pAWA1Vt_or_FOWxPLUBlYx_YQcCkQbQ5clVE6z183FrxHDb6s-oH-UUs_aem_AU98Jn57teZ2mE8WNm6k6JVfWu8KwrpszyJ5kAbFJzz3M9ta01EgO5n_2TPpHHTOettCwNs63-TBQFH8GyJQhQnv,,,,space,1,0.2914,0,46,46,48,1,X,space,,,,,,,,,,,,,,
,,,,,,,,,,,,,,,WRO98,001,,2024-03-29_09h31.00.437,Trial go no go,2020.2.10,MacIntel,60,IwAR0pAWA1Vt_or_FOWxPLUBlYx_YQcCkQbQ5clVE6z183FrxHDb6s-oH-UUs_aem_AU98Jn57teZ2mE8WNm6k6JVfWu8KwrpszyJ5kAbFJzz3M9ta01EgO5n_2TPpHHTOettCwNs63-TBQFH8GyJQhQnv,,,,space,1,0.2557,0,47,47,22,1,X,space,,,,,,,,,,,,,,
,,,,,,,,,,,,,,,WRO98,001,,2024-03-29_09h31.00.437,Trial go no go,2020.2.10,MacIntel,60,IwAR0pAWA1Vt_or_FOWxPLUBlYx_YQcCkQbQ5clVE6z183FrxHDb6s-oH-UUs_aem_AU98Jn57teZ2mE8WNm6k6JVfWu8KwrpszyJ5kAbFJzz3M9ta01EgO5n_2TPpHHTOettCwNs63-TBQFH8GyJQhQnv,,,,space,1,0.2766,0,48,48,6,1,X,space,,,,,,,,,,,,,,
,,,,,,,,,,,,,,,WRO98,001,,2024-03-29_09h31.00.437,Trial go no go,2020.2.10,MacIntel,60,IwAR0pAWA1Vt_or_FOWxPLUBlYx_YQcCkQbQ5clVE6z183FrxHDb6s-oH-UUs_aem_AU98Jn57teZ2mE8WNm6k6JVfWu8KwrpszyJ5kAbFJzz3M9ta01EgO5n_2TPpHHTOettCwNs63-TBQFH8GyJQhQnv,,,,space,1,0.3027,0,49,49,5,1,X,space,,,,,,,,,,,,,,
,,,,,,,,,,,,,,,WRO98,001,,2024-03-29_09h31.00.437,Trial go no go,2020.2.10,MacIntel,60,IwAR0pAWA1Vt_or_FOWxPLUBlYx_YQcCkQbQ5clVE6z183FrxHDb6s-oH-UUs_aem_AU98Jn57teZ2mE8WNm6k6JVfWu8KwrpszyJ5kAbFJzz3M9ta01EgO5n_2TPpHHTOettCwNs63-TBQFH8GyJQhQnv,,,,,,,,,,,,,,z,23.6466,space,1,0.7275,0,0,0,45,1,A,space,,
,,,,,,,,,,,,,,,WRO98,001,,2024-03-29_09h31.00.437,Trial go no go,2020.2.10,MacIntel,60,IwAR0pAWA1Vt_or_FOWxPLUBlYx_YQcCkQbQ5clVE6z183FrxHDb6s-oH-UUs_aem_AU98Jn57teZ2mE8WNm6k6JVfWu8KwrpszyJ5kAbFJzz3M9ta01EgO5n_2TPpHHTOettCwNs63-TBQFH8GyJQhQnv,,,,,,,,,,,,,,,,space,1,0.3879,0,1,1,25,1,I,space,,
,,,,,,,,,,,,,,,WRO98,001,,2024-03-29_09h31.00.437,Trial go no go,2020.2.10,MacIntel,60,IwAR0pAWA1Vt_or_FOWxPLUBlYx_YQcCkQbQ5clVE6z183FrxHDb6s-oH-UUs_aem_AU98Jn57teZ2mE8WNm6k6JVfWu8KwrpszyJ5kAbFJzz3M9ta01EgO5n_2TPpHHTOettCwNs63-TBQFH8GyJQhQnv,,,,,,,,,,,,,,,,space,1,0.2894,0,2,2,40,1,R,space,,
,,,,,,,,,,,,,,,WRO98,001,,2024-03-29_09h31.00.437,Trial go no go,2020.2.10,MacIntel,60,IwAR0pAWA1Vt_or_FOWxPLUBlYx_YQcCkQbQ5clVE6z183FrxHDb6s-oH-UUs_aem_AU98Jn57teZ2mE8WNm6k6JVfWu8KwrpszyJ5kAbFJzz3M9ta01EgO5n_2TPpHHTOettCwNs63-TBQFH8GyJQhQnv,,,,,,,,,,,,,,,,space,1,0.2809,0,3,3,17,1,M,space,,
,,,,,,,,,,,,,,,WRO98,001,,2024-03-29_09h31.00.437,Trial go no go,2020.2.10,MacIntel,60,IwAR0pAWA1Vt_or_FOWxPLUBlYx_YQcCkQbQ5clVE6z183FrxHDb6s-oH-UUs_aem_AU98Jn57teZ2mE8WNm6k6JVfWu8KwrpszyJ5kAbFJzz3M9ta01EgO5n_2TPpHHTOettCwNs63-TBQFH8GyJQhQnv,,,,,,,,,,,,,,,,space,1,0.3138,0,4,4,37,1,W,space,,
,,,,,,,,,,,,,,,WRO98,001,,2024-03-29_09h31.00.437,Trial go no go,2020.2.10,MacIntel,60,IwAR0pAWA1Vt_or_FOWxPLUBlYx_YQcCkQbQ5clVE6z183FrxHDb6s-oH-UUs_aem_AU98Jn57teZ2mE8WNm6k6JVfWu8KwrpszyJ5kAbFJzz3M9ta01EgO5n_2TPpHHTOettCwNs63-TBQFH8GyJQhQnv,,,,,,,,,,,,,,,,space,1,0.3359,0,5,5,35,1,N,space,,
,,,,,,,,,,,,,,,WRO98,001,,2024-03-29_09h31.00.437,Trial go no go,2020.2.10,MacIntel,60,IwAR0pAWA1Vt_or_FOWxPLUBlYx_YQcCkQbQ5clVE6z183FrxHDb6s-oH-UUs_aem_AU98Jn57teZ2mE8WNm6k6JVfWu8KwrpszyJ5kAbFJzz3M9ta01EgO5n_2TPpHHTOettCwNs63-TBQFH8GyJQhQnv,,,,,,,,,,,,,,,,space,1,0.3123,0,6,6,0,1,W,space,,
,,,,,,,,,,,,,,,WRO98,001,,2024-03-29_09h31.00.437,Trial go no go,2020.2.10,MacIntel,60,IwAR0pAWA1Vt_or_FOWxPLUBlYx_YQcCkQbQ5clVE6z183FrxHDb6s-oH-UUs_aem_AU98Jn57teZ2mE8WNm6k6JVfWu8KwrpszyJ5kAbFJzz3M9ta01EgO5n_2TPpHHTOettCwNs63-TBQFH8GyJQhQnv,,,,,,,,,,,,,,,,space,1,0.2859,0,7,7,21,1,R,space,,
,,,,,,,,,,,,,,,WRO98,001,,2024-03-29_09h31.00.437,Trial go no go,2020.2.10,MacIntel,60,IwAR0pAWA1Vt_or_FOWxPLUBlYx_YQcCkQbQ5clVE6z183FrxHDb6s-oH-UUs_aem_AU98Jn57teZ2mE8WNm6k6JVfWu8KwrpszyJ5kAbFJzz3M9ta01EgO5n_2TPpHHTOettCwNs63-TBQFH8GyJQhQnv,,,,,,,,,,,,,,,,space,1,0.2857,0,8,8,48,1,K,space,,
,,,,,,,,,,,,,,,WRO98,001,,2024-03-29_09h31.00.437,Trial go no go,2020.2.10,MacIntel,60,IwAR0pAWA1Vt_or_FOWxPLUBlYx_YQcCkQbQ5clVE6z183FrxHDb6s-oH-UUs_aem_AU98Jn57teZ2mE8WNm6k6JVfWu8KwrpszyJ5kAbFJzz3M9ta01EgO5n_2TPpHHTOettCwNs63-TBQFH8GyJQhQnv,,,,,,,,,,,,,,,,,1,,0,9,9,9,1,X,none,,
,,,,,,,,,,,,,,,WRO98,001,,2024-03-29_09h31.00.437,Trial go no go,2020.2.10,MacIntel,60,IwAR0pAWA1Vt_or_FOWxPLUBlYx_YQcCkQbQ5clVE6z183FrxHDb6s-oH-UUs_aem_AU98Jn57teZ2mE8WNm6k6JVfWu8KwrpszyJ5kAbFJzz3M9ta01EgO5n_2TPpHHTOettCwNs63-TBQFH8GyJQhQnv,,,,,,,,,,,,,,,,space,1,0.3193,0,10,10,3,1,T,space,,
,,,,,,,,,,,,,,,WRO98,001,,2024-03-29_09h31.00.437,Trial go no go,2020.2.10,MacIntel,60,IwAR0pAWA1Vt_or_FOWxPLUBlYx_YQcCkQbQ5clVE6z183FrxHDb6s-oH-UUs_aem_AU98Jn57teZ2mE8WNm6k6JVfWu8KwrpszyJ5kAbFJzz3M9ta01EgO5n_2TPpHHTOettCwNs63-TBQFH8GyJQhQnv,,,,,,,,,,,,,,,,space,1,0.2807,0,11,11,10,1,H,space,,
,,,,,,,,,,,,,,,WRO98,001,,2024-03-29_09h31.00.437,Trial go no go,2020.2.10,MacIntel,60,IwAR0pAWA1Vt_or_FOWxPLUBlYx_YQcCkQbQ5clVE6z183FrxHDb6s-oH-UUs_aem_AU98Jn57teZ2mE8WNm6k6JVfWu8KwrpszyJ5kAbFJzz3M9ta01EgO5n_2TPpHHTOettCwNs63-TBQFH8GyJQhQnv,,,,,,,,,,,,,,,,space,1,0.3545,0,12,12,18,1,W,space,,
,,,,,,,,,,,,,,,WRO98,001,,2024-03-29_09h31.00.437,Trial go no go,2020.2.10,MacIntel,60,IwAR0pAWA1Vt_or_FOWxPLUBlYx_YQcCkQbQ5clVE6z183FrxHDb6s-oH-UUs_aem_AU98Jn57teZ2mE8WNm6k6JVfWu8KwrpszyJ5kAbFJzz3M9ta01EgO5n_2TPpHHTOettCwNs63-TBQFH8GyJQhQnv,,,,,,,,,,,,,,,,space,1,0.2848,0,13,13,6,1,I,space,,
,,,,,,,,,,,,,,,WRO98,001,,2024-03-29_09h31.00.437,Trial go no go,2020.2.10,MacIntel,60,IwAR0pAWA1Vt_or_FOWxPLUBlYx_YQcCkQbQ5clVE6z183FrxHDb6s-oH-UUs_aem_AU98Jn57teZ2mE8WNm6k6JVfWu8KwrpszyJ5kAbFJzz3M9ta01EgO5n_2TPpHHTOettCwNs63-TBQFH8GyJQhQnv,,,,,,,,,,,,,,,,space,1,0.2637,0,14,14,16,1,N,space,,
,,,,,,,,,,,,,,,WRO98,001,,2024-03-29_09h31.00.437,Trial go no go,2020.2.10,MacIntel,60,IwAR0pAWA1Vt_or_FOWxPLUBlYx_YQcCkQbQ5clVE6z183FrxHDb6s-oH-UUs_aem_AU98Jn57teZ2mE8WNm6k6JVfWu8KwrpszyJ5kAbFJzz3M9ta01EgO5n_2TPpHHTOettCwNs63-TBQFH8GyJQhQnv,,,,,,,,,,,,,,,,space,1,0.296,0,15,15,41,1,T,space,,
,,,,,,,,,,,,,,,WRO98,001,,2024-03-29_09h31.00.437,Trial go no go,2020.2.10,MacIntel,60,IwAR0pAWA1Vt_or_FOWxPLUBlYx_YQcCkQbQ5clVE6z183FrxHDb6s-oH-UUs_aem_AU98Jn57teZ2mE8WNm6k6JVfWu8KwrpszyJ5kAbFJzz3M9ta01EgO5n_2TPpHHTOettCwNs63-TBQFH8GyJQhQnv,,,,,,,,,,,,,,,,space,1,0.2704,0,16,16,23,1,Y,space,,
,,,,,,,,,,,,,,,WRO98,001,,2024-03-29_09h31.00.437,Trial go no go,2020.2.10,MacIntel,60,IwAR0pAWA1Vt_or_FOWxPLUBlYx_YQcCkQbQ5clVE6z183FrxHDb6s-oH-UUs_aem_AU98Jn57teZ2mE8WNm6k6JVfWu8KwrpszyJ5kAbFJzz3M9ta01EgO5n_2TPpHHTOettCwNs63-TBQFH8GyJQhQnv,,,,,,,,,,,,,,,,space,1,0.3126,0,17,17,22,1,T,space,,
,,,,,,,,,,,,,,,WRO98,001,,2024-03-29_09h31.00.437,Trial go no go,2020.2.10,MacIntel,60,IwAR0pAWA1Vt_or_FOWxPLUBlYx_YQcCkQbQ5clVE6z183FrxHDb6s-oH-UUs_aem_AU98Jn57teZ2mE8WNm6k6JVfWu8KwrpszyJ5kAbFJzz3M9ta01EgO5n_2TPpHHTOettCwNs63-TBQFH8GyJQhQnv,,,,,,,,,,,,,,,,space,1,0.3124,0,18,18,26,1,A,space,,
,,,,,,,,,,,,,,,WRO98,001,,2024-03-29_09h31.00.437,Trial go no go,2020.2.10,MacIntel,60,IwAR0pAWA1Vt_or_FOWxPLUBlYx_YQcCkQbQ5clVE6z183FrxHDb6s-oH-UUs_aem_AU98Jn57teZ2mE8WNm6k6JVfWu8KwrpszyJ5kAbFJzz3M9ta01EgO5n_2TPpHHTOettCwNs63-TBQFH8GyJQhQnv,,,,,,,,,,,,,,,,space,1,0.3141,0,19,19,38,1,E,space,,
,,,,,,,,,,,,,,,WRO98,001,,2024-03-29_09h31.00.437,Trial go no go,2020.2.10,MacIntel,60,IwAR0pAWA1Vt_or_FOWxPLUBlYx_YQcCkQbQ5clVE6z183FrxHDb6s-oH-UUs_aem_AU98Jn57teZ2mE8WNm6k6JVfWu8KwrpszyJ5kAbFJzz3M9ta01EgO5n_2TPpHHTOettCwNs63-TBQFH8GyJQhQnv,,,,,,,,,,,,,,,,space,1,0.2766,0,20,20,20,1,E,space,,
,,,,,,,,,,,,,,,WRO98,001,,2024-03-29_09h31.00.437,Trial go no go,2020.2.10,MacIntel,60,IwAR0pAWA1Vt_or_FOWxPLUBlYx_YQcCkQbQ5clVE6z183FrxHDb6s-oH-UUs_aem_AU98Jn57teZ2mE8WNm6k6JVfWu8KwrpszyJ5kAbFJzz3M9ta01EgO5n_2TPpHHTOettCwNs63-TBQFH8GyJQhQnv,,,,,,,,,,,,,,,,,1,,0,21,21,24,1,X,none,,
,,,,,,,,,,,,,,,WRO98,001,,2024-03-29_09h31.00.437,Trial go no go,2020.2.10,MacIntel,60,IwAR0pAWA1Vt_or_FOWxPLUBlYx_YQcCkQbQ5clVE6z183FrxHDb6s-oH-UUs_aem_AU98Jn57teZ2mE8WNm6k6JVfWu8KwrpszyJ5kAbFJzz3M9ta01EgO5n_2TPpHHTOettCwNs63-TBQFH8GyJQhQnv,,,,,,,,,,,,,,,,space,1,0.2852,0,22,22,1,1,E,space,,
,,,,,,,,,,,,,,,WRO98,001,,2024-03-29_09h31.00.437,Trial go no go,2020.2.10,MacIntel,60,IwAR0pAWA1Vt_or_FOWxPLUBlYx_YQcCkQbQ5clVE6z183FrxHDb6s-oH-UUs_aem_AU98Jn57teZ2mE8WNm6k6JVfWu8KwrpszyJ5kAbFJzz3M9ta01EgO5n_2TPpHHTOettCwNs63-TBQFH8GyJQhQnv,,,,,,,,,,,,,,,,space,1,0.2726,0,23,23,13,1,Z,space,,
,,,,,,,,,,,,,,,WRO98,001,,2024-03-29_09h31.00.437,Trial go no go,2020.2.10,MacIntel,60,IwAR0pAWA1Vt_or_FOWxPLUBlYx_YQcCkQbQ5clVE6z183FrxHDb6s-oH-UUs_aem_AU98Jn57teZ2mE8WNm6k6JVfWu8KwrpszyJ5kAbFJzz3M9ta01EgO5n_2TPpHHTOettCwNs63-TBQFH8GyJQhQnv,,,,,,,,,,,,,,,,,1,,0,24,24,49,1,X,none,,
,,,,,,,,,,,,,,,WRO98,001,,2024-03-29_09h31.00.437,Trial go no go,2020.2.10,MacIntel,60,IwAR0pAWA1Vt_or_FOWxPLUBlYx_YQcCkQbQ5clVE6z183FrxHDb6s-oH-UUs_aem_AU98Jn57teZ2mE8WNm6k6JVfWu8KwrpszyJ5kAbFJzz3M9ta01EgO5n_2TPpHHTOettCwNs63-TBQFH8GyJQhQnv,,,,,,,,,,,,,,,,space,1,0.3535,0,25,25,42,1,Y,space,,
,,,,,,,,,,,,,,,WRO98,001,,2024-03-29_09h31.00.437,Trial go no go,2020.2.10,MacIntel,60,IwAR0pAWA1Vt_or_FOWxPLUBlYx_YQcCkQbQ5clVE6z183FrxHDb6s-oH-UUs_aem_AU98Jn57teZ2mE8WNm6k6JVfWu8KwrpszyJ5kAbFJzz3M9ta01EgO5n_2TPpHHTOettCwNs63-TBQFH8GyJQhQnv,,,,,,,,,,,,,,,,space,1,0.3058,0,26,26,8,1,F,space,,
,,,,,,,,,,,,,,,WRO98,001,,2024-03-29_09h31.00.437,Trial go no go,2020.2.10,MacIntel,60,IwAR0pAWA1Vt_or_FOWxPLUBlYx_YQcCkQbQ5clVE6z183FrxHDb6s-oH-UUs_aem_AU98Jn57teZ2mE8WNm6k6JVfWu8KwrpszyJ5kAbFJzz3M9ta01EgO5n_2TPpHHTOettCwNs63-TBQFH8GyJQhQnv,,,,,,,,,,,,,,,,space,1,0.2634,0,27,27,2,1,R,space,,
,,,,,,,,,,,,,,,WRO98,001,,2024-03-29_09h31.00.437,Trial go no go,2020.2.10,MacIntel,60,IwAR0pAWA1Vt_or_FOWxPLUBlYx_YQcCkQbQ5clVE6z183FrxHDb6s-oH-UUs_aem_AU98Jn57teZ2mE8WNm6k6JVfWu8KwrpszyJ5kAbFJzz3M9ta01EgO5n_2TPpHHTOettCwNs63-TBQFH8GyJQhQnv,,,,,,,,,,,,,,,,space,1,0.2675,0,28,28,5,1,Y,space,,
,,,,,,,,,,,,,,,WRO98,001,,2024-03-29_09h31.00.437,Trial go no go,2020.2.10,MacIntel,60,IwAR0pAWA1Vt_or_FOWxPLUBlYx_YQcCkQbQ5clVE6z183FrxHDb6s-oH-UUs_aem_AU98Jn57teZ2mE8WNm6k6JVfWu8KwrpszyJ5kAbFJzz3M9ta01EgO5n_2TPpHHTOettCwNs63-TBQFH8GyJQhQnv,,,,,,,,,,,,,,,,,1,,0,29,29,39,1,X,none,,
,,,,,,,,,,,,,,,WRO98,001,,2024-03-29_09h31.00.437,Trial go no go,2020.2.10,MacIntel,60,IwAR0pAWA1Vt_or_FOWxPLUBlYx_YQcCkQbQ5clVE6z183FrxHDb6s-oH-UUs_aem_AU98Jn57teZ2mE8WNm6k6JVfWu8KwrpszyJ5kAbFJzz3M9ta01EgO5n_2TPpHHTOettCwNs63-TBQFH8GyJQhQnv,,,,,,,,,,,,,,,,space,0,0.2943,0,30,30,14,1,X,none,,
,,,,,,,,,,,,,,,WRO98,001,,2024-03-29_09h31.00.437,Trial go no go,2020.2.10,MacIntel,60,IwAR0pAWA1Vt_or_FOWxPLUBlYx_YQcCkQbQ5clVE6z183FrxHDb6s-oH-UUs_aem_AU98Jn57teZ2mE8WNm6k6JVfWu8KwrpszyJ5kAbFJzz3M9ta01EgO5n_2TPpHHTOettCwNs63-TBQFH8GyJQhQnv,,,,,,,,,,,,,,,,space,1,0.3457,0,31,31,28,1,H,space,,
,,,,,,,,,,,,,,,WRO98,001,,2024-03-29_09h31.00.437,Trial go no go,2020.2.10,MacIntel,60,IwAR0pAWA1Vt_or_FOWxPLUBlYx_YQcCkQbQ5clVE6z183FrxHDb6s-oH-UUs_aem_AU98Jn57teZ2mE8WNm6k6JVfWu8KwrpszyJ5kAbFJzz3M9ta01EgO5n_2TPpHHTOettCwNs63-TBQFH8GyJQhQnv,,,,,,,,,,,,,,,,space,1,0.3277,0,32,32,7,1,A,space,,
,,,,,,,,,,,,,,,WRO98,001,,2024-03-29_09h31.00.437,Trial go no go,2020.2.10,MacIntel,60,IwAR0pAWA1Vt_or_FOWxPLUBlYx_YQcCkQbQ5clVE6z183FrxHDb6s-oH-UUs_aem_AU98Jn57teZ2mE8WNm6k6JVfWu8KwrpszyJ5kAbFJzz3M9ta01EgO5n_2TPpHHTOettCwNs63-TBQFH8GyJQhQnv,,,,,,,,,,,,,,,,space,0,0.2722,0,33,33,34,1,X,none,,
,,,,,,,,,,,,,,,WRO98,001,,2024-03-29_09h31.00.437,Trial go no go,2020.2.10,MacIntel,60,IwAR0pAWA1Vt_or_FOWxPLUBlYx_YQcCkQbQ5clVE6z183FrxHDb6s-oH-UUs_aem_AU98Jn57teZ2mE8WNm6k6JVfWu8KwrpszyJ5kAbFJzz3M9ta01EgO5n_2TPpHHTOettCwNs63-TBQFH8GyJQhQnv,,,,,,,,,,,,,,,,space,0,0.3323,0,34,34,19,1,X,none,,
,,,,,,,,,,,,,,,WRO98,001,,2024-03-29_09h31.00.437,Trial go no go,2020.2.10,MacIntel,60,IwAR0pAWA1Vt_or_FOWxPLUBlYx_YQcCkQbQ5clVE6z183FrxHDb6s-oH-UUs_aem_AU98Jn57teZ2mE8WNm6k6JVfWu8KwrpszyJ5kAbFJzz3M9ta01EgO5n_2TPpHHTOettCwNs63-TBQFH8GyJQhQnv,,,,,,,,,,,,,,,,,0,,0,35,35,30,1,K,space,,
,,,,,,,,,,,,,,,WRO98,001,,2024-03-29_09h31.00.437,Trial go no go,2020.2.10,MacIntel,60,IwAR0pAWA1Vt_or_FOWxPLUBlYx_YQcCkQbQ5clVE6z183FrxHDb6s-oH-UUs_aem_AU98Jn57teZ2mE8WNm6k6JVfWu8KwrpszyJ5kAbFJzz3M9ta01EgO5n_2TPpHHTOettCwNs63-TBQFH8GyJQhQnv,,,,,,,,,,,,,,,,space,0,0.2421,0,36,36,4,1,X,none,,
,,,,,,,,,,,,,,,WRO98,001,,2024-03-29_09h31.00.437,Trial go no go,2020.2.10,MacIntel,60,IwAR0pAWA1Vt_or_FOWxPLUBlYx_YQcCkQbQ5clVE6z183FrxHDb6s-oH-UUs_aem_AU98Jn57teZ2mE8WNm6k6JVfWu8KwrpszyJ5kAbFJzz3M9ta01EgO5n_2TPpHHTOettCwNs63-TBQFH8GyJQhQnv,,,,,,,,,,,,,,,,space,1,0.2842,0,37,37,32,1,Z,space,,
,,,,,,,,,,,,,,,WRO98,001,,2024-03-29_09h31.00.437,Trial go no go,2020.2.10,MacIntel,60,IwAR0pAWA1Vt_or_FOWxPLUBlYx_YQcCkQbQ5clVE6z183FrxHDb6s-oH-UUs_aem_AU98Jn57teZ2mE8WNm6k6JVfWu8KwrpszyJ5kAbFJzz3M9ta01EgO5n_2TPpHHTOettCwNs63-TBQFH8GyJQhQnv,,,,,,,,,,,,,,,,space,1,0.3644,0,38,38,12,1,L,space,,
,,,,,,,,,,,,,,,WRO98,001,,2024-03-29_09h31.00.437,Trial go no go,2020.2.10,MacIntel,60,IwAR0pAWA1Vt_or_FOWxPLUBlYx_YQcCkQbQ5clVE6z183FrxHDb6s-oH-UUs_aem_AU98Jn57teZ2mE8WNm6k6JVfWu8KwrpszyJ5kAbFJzz3M9ta01EgO5n_2TPpHHTOettCwNs63-TBQFH8GyJQhQnv,,,,,,,,,,,,,,,,space,1,0.3043,0,39,39,31,1,L,space,,
,,,,,,,,,,,,,,,WRO98,001,,2024-03-29_09h31.00.437,Trial go no go,2020.2.10,MacIntel,60,IwAR0pAWA1Vt_or_FOWxPLUBlYx_YQcCkQbQ5clVE6z183FrxHDb6s-oH-UUs_aem_AU98Jn57teZ2mE8WNm6k6JVfWu8KwrpszyJ5kAbFJzz3M9ta01EgO5n_2TPpHHTOettCwNs63-TBQFH8GyJQhQnv,,,,,,,,,,,,,,,,space,1,0.3879,0,40,40,15,1,V,space,,
,,,,,,,,,,,,,,,WRO98,001,,2024-03-29_09h31.00.437,Trial go no go,2020.2.10,MacIntel,60,IwAR0pAWA1Vt_or_FOWxPLUBlYx_YQcCkQbQ5clVE6z183FrxHDb6s-oH-UUs_aem_AU98Jn57teZ2mE8WNm6k6JVfWu8KwrpszyJ5kAbFJzz3M9ta01EgO5n_2TPpHHTOettCwNs63-TBQFH8GyJQhQnv,,,,,,,,,,,,,,,,space,1,0.3159,0,41,41,47,1,H,space,,
,,,,,,,,,,,,,,,WRO98,001,,2024-03-29_09h31.00.437,Trial go no go,2020.2.10,MacIntel,60,IwAR0pAWA1Vt_or_FOWxPLUBlYx_YQcCkQbQ5clVE6z183FrxHDb6s-oH-UUs_aem_AU98Jn57teZ2mE8WNm6k6JVfWu8KwrpszyJ5kAbFJzz3M9ta01EgO5n_2TPpHHTOettCwNs63-TBQFH8GyJQhQnv,,,,,,,,,,,,,,,,space,1,0.3209,0,42,42,43,1,I,space,,
,,,,,,,,,,,,,,,WRO98,001,,2024-03-29_09h31.00.437,Trial go no go,2020.2.10,MacIntel,60,IwAR0pAWA1Vt_or_FOWxPLUBlYx_YQcCkQbQ5clVE6z183FrxHDb6s-oH-UUs_aem_AU98Jn57teZ2mE8WNm6k6JVfWu8KwrpszyJ5kAbFJzz3M9ta01EgO5n_2TPpHHTOettCwNs63-TBQFH8GyJQhQnv,,,,,,,,,,,,,,,,,1,,0,43,43,29,1,X,none,,
,,,,,,,,,,,,,,,WRO98,001,,2024-03-29_09h31.00.437,Trial go no go,2020.2.10,MacIntel,60,IwAR0pAWA1Vt_or_FOWxPLUBlYx_YQcCkQbQ5clVE6z183FrxHDb6s-oH-UUs_aem_AU98Jn57teZ2mE8WNm6k6JVfWu8KwrpszyJ5kAbFJzz3M9ta01EgO5n_2TPpHHTOettCwNs63-TBQFH8GyJQhQnv,,,,,,,,,,,,,,,,space,1,0.3539,0,44,44,36,1,M,space,,
,,,,,,,,,,,,,,,WRO98,001,,2024-03-29_09h31.00.437,Trial go no go,2020.2.10,MacIntel,60,IwAR0pAWA1Vt_or_FOWxPLUBlYx_YQcCkQbQ5clVE6z183FrxHDb6s-oH-UUs_aem_AU98Jn57teZ2mE8WNm6k6JVfWu8KwrpszyJ5kAbFJzz3M9ta01EgO5n_2TPpHHTOettCwNs63-TBQFH8GyJQhQnv,,,,,,,,,,,,,,,,space,1,0.3371,0,45,45,11,1,K,space,,
,,,,,,,,,,,,,,,WRO98,001,,2024-03-29_09h31.00.437,Trial go no go,2020.2.10,MacIntel,60,IwAR0pAWA1Vt_or_FOWxPLUBlYx_YQcCkQbQ5clVE6z183FrxHDb6s-oH-UUs_aem_AU98Jn57teZ2mE8WNm6k6JVfWu8KwrpszyJ5kAbFJzz3M9ta01EgO5n_2TPpHHTOettCwNs63-TBQFH8GyJQhQnv,,,,,,,,,,,,,,,,space,1,0.348,0,46,46,33,1,V,space,,
,,,,,,,,,,,,,,,WRO98,001,,2024-03-29_09h31.00.437,Trial go no go,2020.2.10,MacIntel,60,IwAR0pAWA1Vt_or_FOWxPLUBlYx_YQcCkQbQ5clVE6z183FrxHDb6s-oH-UUs_aem_AU98Jn57teZ2mE8WNm6k6JVfWu8KwrpszyJ5kAbFJzz3M9ta01EgO5n_2TPpHHTOettCwNs63-TBQFH8GyJQhQnv,,,,,,,,,,,,,,,,,1,,0,47,47,44,1,X,none,,
,,,,,,,,,,,,,,,WRO98,001,,2024-03-29_09h31.00.437,Trial go no go,2020.2.10,MacIntel,60,IwAR0pAWA1Vt_or_FOWxPLUBlYx_YQcCkQbQ5clVE6z183FrxHDb6s-oH-UUs_aem_AU98Jn57teZ2mE8WNm6k6JVfWu8KwrpszyJ5kAbFJzz3M9ta01EgO5n_2TPpHHTOettCwNs63-TBQFH8GyJQhQnv,,,,,,,,,,,,,,,,space,1,0.3336,0,48,48,27,1,F,space,,
,,,,,,,,,,,,,,,WRO98,001,,2024-03-29_09h31.00.437,Trial go no go,2020.2.10,MacIntel,60,IwAR0pAWA1Vt_or_FOWxPLUBlYx_YQcCkQbQ5clVE6z183FrxHDb6s-oH-UUs_aem_AU98Jn57teZ2mE8WNm6k6JVfWu8KwrpszyJ5kAbFJzz3M9ta01EgO5n_2TPpHHTOettCwNs63-TBQFH8GyJQhQnv,,,,,,,,,,,,,,,,space,1,0.3669,0,49,49,46,1,F,space,,
,,,,,,,,,,,,,,,WRO98,001,,2024-03-29_09h31.00.437,Trial go no go,2020.2.10,MacIntel,60,IwAR0pAWA1Vt_or_FOWxPLUBlYx_YQcCkQbQ5clVE6z183FrxHDb6s-oH-UUs_aem_AU98Jn57teZ2mE8WNm6k6JVfWu8KwrpszyJ5kAbFJzz3M9ta01EgO5n_2TPpHHTOettCwNs63-TBQFH8GyJQhQnv,,,,,,,,,,,,,,,,,,,,,,,,,,space,10.117
