resp_Welcome.keys,resp_Welcome.rt,resp_Instr_Intro.keys,resp_Instr_Intro.rt,resp_Instr_Prac1.keys,resp_Instr_Prac1.rt,resp_trial_Prac1.keys,resp_trial_Prac1.corr,resp_trial_Prac1.rt,prac_trials.thisRepN,prac_trials.thisTrialN,prac_trials.thisN,prac_trials.thisIndex,prac_trials.ran,stimulus_prac1,corrAns_prac1,participant,session,indywidualny kod,date,expName,psychopyVersion,OS,frameRate,fbclid,resp_Instr_Test1.keys,resp_Instr_Test1.rt,resp_trial_Test1.keys,resp_trial_Test1.corr,resp_trial_Test1.rt,test1trial.thisRepN,test1trial.thisTrialN,test1trial.thisN,test1trial.thisIndex,test1trial.ran,stimulus_test1,corrAns_test1,resp_Instr_Test2.keys,resp_Instr_Test2.rt,key_resp_Test2.keys,key_resp_Test2.corr,key_resp_Test2.rt,test2trial.thisRepN,test2trial.thisTrialN,test2trial.thisN,test2trial.thisIndex,test2trial.ran,stimulus_test2,corrAns_test2,resp_theEnd.keys,resp_theEnd.rt
space,11.7542,space,21.0667,space,21.919,space,1,0.6015,0,0,0,2,1,X,space,WRO90,001,,2024-02-08_10h16.35.333,Trial go no go,2020.2.10,MacIntel,60,IwAR0JRSQvI-iuVEUmDHOPasYt00Nuj786ux6qQ3mzzc2AG3ztO_9hkhK4DRw,,,,,,,,,,,,,,,,,,,,,,,,,,
,,,,,,space,1,0.4525,0,1,1,8,1,X,space,WRO90,001,,2024-02-08_10h16.35.333,Trial go no go,2020.2.10,MacIntel,60,IwAR0JRSQvI-iuVEUmDHOPasYt00Nuj786ux6qQ3mzzc2AG3ztO_9hkhK4DRw,,,,,,,,,,,,,,,,,,,,,,,,,,
,,,,,,space,1,0.3844,0,2,2,7,1,X,space,WRO90,001,,2024-02-08_10h16.35.333,Trial go no go,2020.2.10,MacIntel,60,IwAR0JRSQvI-iuVEUmDHOPasYt00Nuj786ux6qQ3mzzc2AG3ztO_9hkhK4DRw,,,,,,,,,,,,,,,,,,,,,,,,,,
,,,,,,space,1,0.4719,0,3,3,0,1,X,space,WRO90,001,,2024-02-08_10h16.35.333,Trial go no go,2020.2.10,MacIntel,60,IwAR0JRSQvI-iuVEUmDHOPasYt00Nuj786ux6qQ3mzzc2AG3ztO_9hkhK4DRw,,,,,,,,,,,,,,,,,,,,,,,,,,
,,,,,,space,0,0.3733,0,4,4,4,1,W,none,WRO90,001,,2024-02-08_10h16.35.333,Trial go no go,2020.2.10,MacIntel,60,IwAR0JRSQvI-iuVEUmDHOPasYt00Nuj786ux6qQ3mzzc2AG3ztO_9hkhK4DRw,,,,,,,,,,,,,,,,,,,,,,,,,,
,,,,,,,0,,0,5,5,1,1,X,space,WRO90,001,,2024-02-08_10h16.35.333,Trial go no go,2020.2.10,MacIntel,60,IwAR0JRSQvI-iuVEUmDHOPasYt00Nuj786ux6qQ3mzzc2AG3ztO_9hkhK4DRw,,,,,,,,,,,,,,,,,,,,,,,,,,
,,,,,,space,1,0.464,0,6,6,13,1,X,space,WRO90,001,,2024-02-08_10h16.35.333,Trial go no go,2020.2.10,MacIntel,60,IwAR0JRSQvI-iuVEUmDHOPasYt00Nuj786ux6qQ3mzzc2AG3ztO_9hkhK4DRw,,,,,,,,,,,,,,,,,,,,,,,,,,
,,,,,,space,1,0.601,0,7,7,5,1,X,space,WRO90,001,,2024-02-08_10h16.35.333,Trial go no go,2020.2.10,MacIntel,60,IwAR0JRSQvI-iuVEUmDHOPasYt00Nuj786ux6qQ3mzzc2AG3ztO_9hkhK4DRw,,,,,,,,,,,,,,,,,,,,,,,,,,
,,,,,,,1,,0,8,8,14,1,K,none,WRO90,001,,2024-02-08_10h16.35.333,Trial go no go,2020.2.10,MacIntel,60,IwAR0JRSQvI-iuVEUmDHOPasYt00Nuj786ux6qQ3mzzc2AG3ztO_9hkhK4DRw,,,,,,,,,,,,,,,,,,,,,,,,,,
,,,,,,space,1,0.4835,0,9,9,11,1,X,space,WRO90,001,,2024-02-08_10h16.35.333,Trial go no go,2020.2.10,MacIntel,60,IwAR0JRSQvI-iuVEUmDHOPasYt00Nuj786ux6qQ3mzzc2AG3ztO_9hkhK4DRw,,,,,,,,,,,,,,,,,,,,,,,,,,
,,,,,,space,1,0.5009,0,10,10,6,1,X,space,WRO90,001,,2024-02-08_10h16.35.333,Trial go no go,2020.2.10,MacIntel,60,IwAR0JRSQvI-iuVEUmDHOPasYt00Nuj786ux6qQ3mzzc2AG3ztO_9hkhK4DRw,,,,,,,,,,,,,,,,,,,,,,,,,,
,,,,,,space,1,0.442,0,11,11,10,1,X,space,WRO90,001,,2024-02-08_10h16.35.333,Trial go no go,2020.2.10,MacIntel,60,IwAR0JRSQvI-iuVEUmDHOPasYt00Nuj786ux6qQ3mzzc2AG3ztO_9hkhK4DRw,,,,,,,,,,,,,,,,,,,,,,,,,,
,,,,,,space,1,0.422,0,12,12,12,1,X,space,WRO90,001,,2024-02-08_10h16.35.333,Trial go no go,2020.2.10,MacIntel,60,IwAR0JRSQvI-iuVEUmDHOPasYt00Nuj786ux6qQ3mzzc2AG3ztO_9hkhK4DRw,,,,,,,,,,,,,,,,,,,,,,,,,,
,,,,,,,1,,0,13,13,9,1,V,none,WRO90,001,,2024-02-08_10h16.35.333,Trial go no go,2020.2.10,MacIntel,60,IwAR0JRSQvI-iuVEUmDHOPasYt00Nuj786ux6qQ3mzzc2AG3ztO_9hkhK4DRw,,,,,,,,,,,,,,,,,,,,,,,,,,
,,,,,,space,1,0.4947,0,14,14,3,1,X,space,WRO90,001,,2024-02-08_10h16.35.333,Trial go no go,2020.2.10,MacIntel,60,IwAR0JRSQvI-iuVEUmDHOPasYt00Nuj786ux6qQ3mzzc2AG3ztO_9hkhK4DRw,,,,,,,,,,,,,,,,,,,,,,,,,,
,,,,,,,,,,,,,,,,WRO90,001,,2024-02-08_10h16.35.333,Trial go no go,2020.2.10,MacIntel,60,IwAR0JRSQvI-iuVEUmDHOPasYt00Nuj786ux6qQ3mzzc2AG3ztO_9hkhK4DRw,space,7.4719,space,1,0.3994,0,0,0,11,1,X,space,,,,,,,,,,,,,,
,,,,,,,,,,,,,,,,WRO90,001,,2024-02-08_10h16.35.333,Trial go no go,2020.2.10,MacIntel,60,IwAR0JRSQvI-iuVEUmDHOPasYt00Nuj786ux6qQ3mzzc2AG3ztO_9hkhK4DRw,,,space,1,0.3827,0,1,1,33,1,X,space,,,,,,,,,,,,,,
,,,,,,,,,,,,,,,,WRO90,001,,2024-02-08_10h16.35.333,Trial go no go,2020.2.10,MacIntel,60,IwAR0JRSQvI-iuVEUmDHOPasYt00Nuj786ux6qQ3mzzc2AG3ztO_9hkhK4DRw,,,space,0,0.2671,0,2,2,24,1,H,none,,,,,,,,,,,,,,
,,,,,,,,,,,,,,,,WRO90,001,,2024-02-08_10h16.35.333,Trial go no go,2020.2.10,MacIntel,60,IwAR0JRSQvI-iuVEUmDHOPasYt00Nuj786ux6qQ3mzzc2AG3ztO_9hkhK4DRw,,,space,1,0.2774,0,3,3,38,1,X,space,,,,,,,,,,,,,,
,,,,,,,,,,,,,,,,WRO90,001,,2024-02-08_10h16.35.333,Trial go no go,2020.2.10,MacIntel,60,IwAR0JRSQvI-iuVEUmDHOPasYt00Nuj786ux6qQ3mzzc2AG3ztO_9hkhK4DRw,,,space,1,0.3364,0,4,4,37,1,X,space,,,,,,,,,,,,,,
,,,,,,,,,,,,,,,,WRO90,001,,2024-02-08_10h16.35.333,Trial go no go,2020.2.10,MacIntel,60,IwAR0JRSQvI-iuVEUmDHOPasYt00Nuj786ux6qQ3mzzc2AG3ztO_9hkhK4DRw,,,space,1,0.3659,0,5,5,0,1,X,space,,,,,,,,,,,,,,
,,,,,,,,,,,,,,,,WRO90,001,,2024-02-08_10h16.35.333,Trial go no go,2020.2.10,MacIntel,60,IwAR0JRSQvI-iuVEUmDHOPasYt00Nuj786ux6qQ3mzzc2AG3ztO_9hkhK4DRw,,,space,0,0.3429,0,6,6,19,1,K,none,,,,,,,,,,,,,,
,,,,,,,,,,,,,,,,WRO90,001,,2024-02-08_10h16.35.333,Trial go no go,2020.2.10,MacIntel,60,IwAR0JRSQvI-iuVEUmDHOPasYt00Nuj786ux6qQ3mzzc2AG3ztO_9hkhK4DRw,,,space,1,0.3534,0,7,7,28,1,X,space,,,,,,,,,,,,,,
,,,,,,,,,,,,,,,,WRO90,001,,2024-02-08_10h16.35.333,Trial go no go,2020.2.10,MacIntel,60,IwAR0JRSQvI-iuVEUmDHOPasYt00Nuj786ux6qQ3mzzc2AG3ztO_9hkhK4DRw,,,space,1,0.3422,0,8,8,40,1,X,space,,,,,,,,,,,,,,
,,,,,,,,,,,,,,,,WRO90,001,,2024-02-08_10h16.35.333,Trial go no go,2020.2.10,MacIntel,60,IwAR0JRSQvI-iuVEUmDHOPasYt00Nuj786ux6qQ3mzzc2AG3ztO_9hkhK4DRw,,,space,1,0.4009,0,9,9,48,1,X,space,,,,,,,,,,,,,,
,,,,,,,,,,,,,,,,WRO90,001,,2024-02-08_10h16.35.333,Trial go no go,2020.2.10,MacIntel,60,IwAR0JRSQvI-iuVEUmDHOPasYt00Nuj786ux6qQ3mzzc2AG3ztO_9hkhK4DRw,,,space,1,0.3979,0,10,10,32,1,X,space,,,,,,,,,,,,,,
,,,,,,,,,,,,,,,,WRO90,001,,2024-02-08_10h16.35.333,Trial go no go,2020.2.10,MacIntel,60,IwAR0JRSQvI-iuVEUmDHOPasYt00Nuj786ux6qQ3mzzc2AG3ztO_9hkhK4DRw,,,space,1,0.3368,0,11,11,20,1,X,space,,,,,,,,,,,,,,
,,,,,,,,,,,,,,,,WRO90,001,,2024-02-08_10h16.35.333,Trial go no go,2020.2.10,MacIntel,60,IwAR0JRSQvI-iuVEUmDHOPasYt00Nuj786ux6qQ3mzzc2AG3ztO_9hkhK4DRw,,,space,1,0.3505,0,12,12,30,1,X,space,,,,,,,,,,,,,,
,,,,,,,,,,,,,,,,WRO90,001,,2024-02-08_10h16.35.333,Trial go no go,2020.2.10,MacIntel,60,IwAR0JRSQvI-iuVEUmDHOPasYt00Nuj786ux6qQ3mzzc2AG3ztO_9hkhK4DRw,,,space,1,0.2996,0,13,13,41,1,X,space,,,,,,,,,,,,,,
,,,,,,,,,,,,,,,,WRO90,001,,2024-02-08_10h16.35.333,Trial go no go,2020.2.10,MacIntel,60,IwAR0JRSQvI-iuVEUmDHOPasYt00Nuj786ux6qQ3mzzc2AG3ztO_9hkhK4DRw,,,space,1,0.3657,0,14,14,27,1,X,space,,,,,,,,,,,,,,
,,,,,,,,,,,,,,,,WRO90,001,,2024-02-08_10h16.35.333,Trial go no go,2020.2.10,MacIntel,60,IwAR0JRSQvI-iuVEUmDHOPasYt00Nuj786ux6qQ3mzzc2AG3ztO_9hkhK4DRw,,,space,1,0.2986,0,15,15,3,1,X,space,,,,,,,,,,,,,,
,,,,,,,,,,,,,,,,WRO90,001,,2024-02-08_10h16.35.333,Trial go no go,2020.2.10,MacIntel,60,IwAR0JRSQvI-iuVEUmDHOPasYt00Nuj786ux6qQ3mzzc2AG3ztO_9hkhK4DRw,,,space,1,0.2993,0,16,16,15,1,X,space,,,,,,,,,,,,,,
,,,,,,,,,,,,,,,,WRO90,001,,2024-02-08_10h16.35.333,Trial go no go,2020.2.10,MacIntel,60,IwAR0JRSQvI-iuVEUmDHOPasYt00Nuj786ux6qQ3mzzc2AG3ztO_9hkhK4DRw,,,space,1,0.3031,0,17,17,2,1,X,space,,,,,,,,,,,,,,
,,,,,,,,,,,,,,,,WRO90,001,,2024-02-08_10h16.35.333,Trial go no go,2020.2.10,MacIntel,60,IwAR0JRSQvI-iuVEUmDHOPasYt00Nuj786ux6qQ3mzzc2AG3ztO_9hkhK4DRw,,,,1,,0,18,18,49,1,E,none,,,,,,,,,,,,,,
,,,,,,,,,,,,,,,,WRO90,001,,2024-02-08_10h16.35.333,Trial go no go,2020.2.10,MacIntel,60,IwAR0JRSQvI-iuVEUmDHOPasYt00Nuj786ux6qQ3mzzc2AG3ztO_9hkhK4DRw,,,space,1,0.3065,0,19,19,8,1,X,space,,,,,,,,,,,,,,
,,,,,,,,,,,,,,,,WRO90,001,,2024-02-08_10h16.35.333,Trial go no go,2020.2.10,MacIntel,60,IwAR0JRSQvI-iuVEUmDHOPasYt00Nuj786ux6qQ3mzzc2AG3ztO_9hkhK4DRw,,,space,1,0.4835,0,20,20,31,1,X,space,,,,,,,,,,,,,,
,,,,,,,,,,,,,,,,WRO90,001,,2024-02-08_10h16.35.333,Trial go no go,2020.2.10,MacIntel,60,IwAR0JRSQvI-iuVEUmDHOPasYt00Nuj786ux6qQ3mzzc2AG3ztO_9hkhK4DRw,,,space,1,0.5039,0,21,21,18,1,X,space,,,,,,,,,,,,,,
,,,,,,,,,,,,,,,,WRO90,001,,2024-02-08_10h16.35.333,Trial go no go,2020.2.10,MacIntel,60,IwAR0JRSQvI-iuVEUmDHOPasYt00Nuj786ux6qQ3mzzc2AG3ztO_9hkhK4DRw,,,space,1,0.3313,0,22,22,42,1,X,space,,,,,,,,,,,,,,
,,,,,,,,,,,,,,,,WRO90,001,,2024-02-08_10h16.35.333,Trial go no go,2020.2.10,MacIntel,60,IwAR0JRSQvI-iuVEUmDHOPasYt00Nuj786ux6qQ3mzzc2AG3ztO_9hkhK4DRw,,,space,1,0.3197,0,23,23,45,1,X,space,,,,,,,,,,,,,,
,,,,,,,,,,,,,,,,WRO90,001,,2024-02-08_10h16.35.333,Trial go no go,2020.2.10,MacIntel,60,IwAR0JRSQvI-iuVEUmDHOPasYt00Nuj786ux6qQ3mzzc2AG3ztO_9hkhK4DRw,,,space,1,0.2985,0,24,24,35,1,X,space,,,,,,,,,,,,,,
,,,,,,,,,,,,,,,,WRO90,001,,2024-02-08_10h16.35.333,Trial go no go,2020.2.10,MacIntel,60,IwAR0JRSQvI-iuVEUmDHOPasYt00Nuj786ux6qQ3mzzc2AG3ztO_9hkhK4DRw,,,space,1,0.3091,0,25,25,47,1,X,space,,,,,,,,,,,,,,
,,,,,,,,,,,,,,,,WRO90,001,,2024-02-08_10h16.35.333,Trial go no go,2020.2.10,MacIntel,60,IwAR0JRSQvI-iuVEUmDHOPasYt00Nuj786ux6qQ3mzzc2AG3ztO_9hkhK4DRw,,,space,0,0.2632,0,26,26,39,1,M,none,,,,,,,,,,,,,,
,,,,,,,,,,,,,,,,WRO90,001,,2024-02-08_10h16.35.333,Trial go no go,2020.2.10,MacIntel,60,IwAR0JRSQvI-iuVEUmDHOPasYt00Nuj786ux6qQ3mzzc2AG3ztO_9hkhK4DRw,,,space,1,0.3306,0,27,27,12,1,X,space,,,,,,,,,,,,,,
,,,,,,,,,,,,,,,,WRO90,001,,2024-02-08_10h16.35.333,Trial go no go,2020.2.10,MacIntel,60,IwAR0JRSQvI-iuVEUmDHOPasYt00Nuj786ux6qQ3mzzc2AG3ztO_9hkhK4DRw,,,space,1,0.3074,0,28,28,13,1,X,space,,,,,,,,,,,,,,
,,,,,,,,,,,,,,,,WRO90,001,,2024-02-08_10h16.35.333,Trial go no go,2020.2.10,MacIntel,60,IwAR0JRSQvI-iuVEUmDHOPasYt00Nuj786ux6qQ3mzzc2AG3ztO_9hkhK4DRw,,,space,0,0.2985,0,29,29,9,1,W,none,,,,,,,,,,,,,,
,,,,,,,,,,,,,,,,WRO90,001,,2024-02-08_10h16.35.333,Trial go no go,2020.2.10,MacIntel,60,IwAR0JRSQvI-iuVEUmDHOPasYt00Nuj786ux6qQ3mzzc2AG3ztO_9hkhK4DRw,,,space,1,0.3155,0,30,30,10,1,X,space,,,,,,,,,,,,,,
,,,,,,,,,,,,,,,,WRO90,001,,2024-02-08_10h16.35.333,Trial go no go,2020.2.10,MacIntel,60,IwAR0JRSQvI-iuVEUmDHOPasYt00Nuj786ux6qQ3mzzc2AG3ztO_9hkhK4DRw,,,space,1,0.2896,0,31,31,25,1,X,space,,,,,,,,,,,,,,
,,,,,,,,,,,,,,,,WRO90,001,,2024-02-08_10h16.35.333,Trial go no go,2020.2.10,MacIntel,60,IwAR0JRSQvI-iuVEUmDHOPasYt00Nuj786ux6qQ3mzzc2AG3ztO_9hkhK4DRw,,,space,1,0.3328,0,32,32,5,1,X,space,,,,,,,,,,,,,,
,,,,,,,,,,,,,,,,WRO90,001,,2024-02-08_10h16.35.333,Trial go no go,2020.2.10,MacIntel,60,IwAR0JRSQvI-iuVEUmDHOPasYt00Nuj786ux6qQ3mzzc2AG3ztO_9hkhK4DRw,,,space,1,0.2918,0,33,33,36,1,X,space,,,,,,,,,,,,,,
,,,,,,,,,,,,,,,,WRO90,001,,2024-02-08_10h16.35.333,Trial go no go,2020.2.10,MacIntel,60,IwAR0JRSQvI-iuVEUmDHOPasYt00Nuj786ux6qQ3mzzc2AG3ztO_9hkhK4DRw,,,space,1,0.2823,0,34,34,23,1,X,space,,,,,,,,,,,,,,
,,,,,,,,,,,,,,,,WRO90,001,,2024-02-08_10h16.35.333,Trial go no go,2020.2.10,MacIntel,60,IwAR0JRSQvI-iuVEUmDHOPasYt00Nuj786ux6qQ3mzzc2AG3ztO_9hkhK4DRw,,,space,1,0.3146,0,35,35,46,1,X,space,,,,,,,,,,,,,,
,,,,,,,,,,,,,,,,WRO90,001,,2024-02-08_10h16.35.333,Trial go no go,2020.2.10,MacIntel,60,IwAR0JRSQvI-iuVEUmDHOPasYt00Nuj786ux6qQ3mzzc2AG3ztO_9hkhK4DRw,,,space,1,0.286,0,36,36,6,1,X,space,,,,,,,,,,,,,,
,,,,,,,,,,,,,,,,WRO90,001,,2024-02-08_10h16.35.333,Trial go no go,2020.2.10,MacIntel,60,IwAR0JRSQvI-iuVEUmDHOPasYt00Nuj786ux6qQ3mzzc2AG3ztO_9hkhK4DRw,,,space,1,0.2848,0,37,37,26,1,X,space,,,,,,,,,,,,,,
,,,,,,,,,,,,,,,,WRO90,001,,2024-02-08_10h16.35.333,Trial go no go,2020.2.10,MacIntel,60,IwAR0JRSQvI-iuVEUmDHOPasYt00Nuj786ux6qQ3mzzc2AG3ztO_9hkhK4DRw,,,space,0,0.3066,0,38,38,14,1,Y,none,,,,,,,,,,,,,,
,,,,,,,,,,,,,,,,WRO90,001,,2024-02-08_10h16.35.333,Trial go no go,2020.2.10,MacIntel,60,IwAR0JRSQvI-iuVEUmDHOPasYt00Nuj786ux6qQ3mzzc2AG3ztO_9hkhK4DRw,,,,1,,0,39,39,44,1,F,none,,,,,,,,,,,,,,
,,,,,,,,,,,,,,,,WRO90,001,,2024-02-08_10h16.35.333,Trial go no go,2020.2.10,MacIntel,60,IwAR0JRSQvI-iuVEUmDHOPasYt00Nuj786ux6qQ3mzzc2AG3ztO_9hkhK4DRw,,,,1,,0,40,40,29,1,T,none,,,,,,,,,,,,,,
,,,,,,,,,,,,,,,,WRO90,001,,2024-02-08_10h16.35.333,Trial go no go,2020.2.10,MacIntel,60,IwAR0JRSQvI-iuVEUmDHOPasYt00Nuj786ux6qQ3mzzc2AG3ztO_9hkhK4DRw,,,space,1,0.4651,0,41,41,17,1,X,space,,,,,,,,,,,,,,
,,,,,,,,,,,,,,,,WRO90,001,,2024-02-08_10h16.35.333,Trial go no go,2020.2.10,MacIntel,60,IwAR0JRSQvI-iuVEUmDHOPasYt00Nuj786ux6qQ3mzzc2AG3ztO_9hkhK4DRw,,,space,1,0.351,0,42,42,7,1,X,space,,,,,,,,,,,,,,
,,,,,,,,,,,,,,,,WRO90,001,,2024-02-08_10h16.35.333,Trial go no go,2020.2.10,MacIntel,60,IwAR0JRSQvI-iuVEUmDHOPasYt00Nuj786ux6qQ3mzzc2AG3ztO_9hkhK4DRw,,,,1,,0,43,43,34,1,N,none,,,,,,,,,,,,,,
,,,,,,,,,,,,,,,,WRO90,001,,2024-02-08_10h16.35.333,Trial go no go,2020.2.10,MacIntel,60,IwAR0JRSQvI-iuVEUmDHOPasYt00Nuj786ux6qQ3mzzc2AG3ztO_9hkhK4DRw,,,space,1,0.4875,0,44,44,16,1,X,space,,,,,,,,,,,,,,
,,,,,,,,,,,,,,,,WRO90,001,,2024-02-08_10h16.35.333,Trial go no go,2020.2.10,MacIntel,60,IwAR0JRSQvI-iuVEUmDHOPasYt00Nuj786ux6qQ3mzzc2AG3ztO_9hkhK4DRw,,,space,1,0.4346,0,45,45,21,1,X,space,,,,,,,,,,,,,,
,,,,,,,,,,,,,,,,WRO90,001,,2024-02-08_10h16.35.333,Trial go no go,2020.2.10,MacIntel,60,IwAR0JRSQvI-iuVEUmDHOPasYt00Nuj786ux6qQ3mzzc2AG3ztO_9hkhK4DRw,,,space,1,0.3815,0,46,46,43,1,X,space,,,,,,,,,,,,,,
,,,,,,,,,,,,,,,,WRO90,001,,2024-02-08_10h16.35.333,Trial go no go,2020.2.10,MacIntel,60,IwAR0JRSQvI-iuVEUmDHOPasYt00Nuj786ux6qQ3mzzc2AG3ztO_9hkhK4DRw,,,space,1,0.3545,0,47,47,1,1,X,space,,,,,,,,,,,,,,
,,,,,,,,,,,,,,,,WRO90,001,,2024-02-08_10h16.35.333,Trial go no go,2020.2.10,MacIntel,60,IwAR0JRSQvI-iuVEUmDHOPasYt00Nuj786ux6qQ3mzzc2AG3ztO_9hkhK4DRw,,,space,1,0.3663,0,48,48,22,1,X,space,,,,,,,,,,,,,,
,,,,,,,,,,,,,,,,WRO90,001,,2024-02-08_10h16.35.333,Trial go no go,2020.2.10,MacIntel,60,IwAR0JRSQvI-iuVEUmDHOPasYt00Nuj786ux6qQ3mzzc2AG3ztO_9hkhK4DRw,,,,1,,0,49,49,4,1,V,none,,,,,,,,,,,,,,
,,,,,,,,,,,,,,,,WRO90,001,,2024-02-08_10h16.35.333,Trial go no go,2020.2.10,MacIntel,60,IwAR0JRSQvI-iuVEUmDHOPasYt00Nuj786ux6qQ3mzzc2AG3ztO_9hkhK4DRw,,,,,,,,,,,,,z,15.7254,space,1,0.6541,0,0,0,31,1,L,space,,
,,,,,,,,,,,,,,,,WRO90,001,,2024-02-08_10h16.35.333,Trial go no go,2020.2.10,MacIntel,60,IwAR0JRSQvI-iuVEUmDHOPasYt00Nuj786ux6qQ3mzzc2AG3ztO_9hkhK4DRw,,,,,,,,,,,,,,,space,1,0.3578,0,1,1,21,1,R,space,,
,,,,,,,,,,,,,,,,WRO90,001,,2024-02-08_10h16.35.333,Trial go no go,2020.2.10,MacIntel,60,IwAR0JRSQvI-iuVEUmDHOPasYt00Nuj786ux6qQ3mzzc2AG3ztO_9hkhK4DRw,,,,,,,,,,,,,,,space,1,0.2918,0,2,2,27,1,F,space,,
,,,,,,,,,,,,,,,,WRO90,001,,2024-02-08_10h16.35.333,Trial go no go,2020.2.10,MacIntel,60,IwAR0JRSQvI-iuVEUmDHOPasYt00Nuj786ux6qQ3mzzc2AG3ztO_9hkhK4DRw,,,,,,,,,,,,,,,space,1,0.3364,0,3,3,42,1,Y,space,,
,,,,,,,,,,,,,,,,WRO90,001,,2024-02-08_10h16.35.333,Trial go no go,2020.2.10,MacIntel,60,IwAR0JRSQvI-iuVEUmDHOPasYt00Nuj786ux6qQ3mzzc2AG3ztO_9hkhK4DRw,,,,,,,,,,,,,,,space,1,0.3221,0,4,4,13,1,Z,space,,
,,,,,,,,,,,,,,,,WRO90,001,,2024-02-08_10h16.35.333,Trial go no go,2020.2.10,MacIntel,60,IwAR0JRSQvI-iuVEUmDHOPasYt00Nuj786ux6qQ3mzzc2AG3ztO_9hkhK4DRw,,,,,,,,,,,,,,,space,1,0.2968,0,5,5,25,1,I,space,,
,,,,,,,,,,,,,,,,WRO90,001,,2024-02-08_10h16.35.333,Trial go no go,2020.2.10,MacIntel,60,IwAR0JRSQvI-iuVEUmDHOPasYt00Nuj786ux6qQ3mzzc2AG3ztO_9hkhK4DRw,,,,,,,,,,,,,,,space,1,0.5997,0,6,6,10,1,H,space,,
,,,,,,,,,,,,,,,,WRO90,001,,2024-02-08_10h16.35.333,Trial go no go,2020.2.10,MacIntel,60,IwAR0JRSQvI-iuVEUmDHOPasYt00Nuj786ux6qQ3mzzc2AG3ztO_9hkhK4DRw,,,,,,,,,,,,,,,,1,,0,7,7,4,1,X,none,,
,,,,,,,,,,,,,,,,WRO90,001,,2024-02-08_10h16.35.333,Trial go no go,2020.2.10,MacIntel,60,IwAR0JRSQvI-iuVEUmDHOPasYt00Nuj786ux6qQ3mzzc2AG3ztO_9hkhK4DRw,,,,,,,,,,,,,,,space,1,0.2441,0,8,8,7,1,A,space,,
,,,,,,,,,,,,,,,,WRO90,001,,2024-02-08_10h16.35.333,Trial go no go,2020.2.10,MacIntel,60,IwAR0JRSQvI-iuVEUmDHOPasYt00Nuj786ux6qQ3mzzc2AG3ztO_9hkhK4DRw,,,,,,,,,,,,,,,space,0,0.2611,0,9,9,9,1,X,none,,
,,,,,,,,,,,,,,,,WRO90,001,,2024-02-08_10h16.35.333,Trial go no go,2020.2.10,MacIntel,60,IwAR0JRSQvI-iuVEUmDHOPasYt00Nuj786ux6qQ3mzzc2AG3ztO_9hkhK4DRw,,,,,,,,,,,,,,,space,1,0.2444,0,10,10,32,1,Z,space,,
,,,,,,,,,,,,,,,,WRO90,001,,2024-02-08_10h16.35.333,Trial go no go,2020.2.10,MacIntel,60,IwAR0JRSQvI-iuVEUmDHOPasYt00Nuj786ux6qQ3mzzc2AG3ztO_9hkhK4DRw,,,,,,,,,,,,,,,space,1,0.2965,0,11,11,40,1,R,space,,
,,,,,,,,,,,,,,,,WRO90,001,,2024-02-08_10h16.35.333,Trial go no go,2020.2.10,MacIntel,60,IwAR0JRSQvI-iuVEUmDHOPasYt00Nuj786ux6qQ3mzzc2AG3ztO_9hkhK4DRw,,,,,,,,,,,,,,,space,1,0.4435,0,12,12,18,1,W,space,,
,,,,,,,,,,,,,,,,WRO90,001,,2024-02-08_10h16.35.333,Trial go no go,2020.2.10,MacIntel,60,IwAR0JRSQvI-iuVEUmDHOPasYt00Nuj786ux6qQ3mzzc2AG3ztO_9hkhK4DRw,,,,,,,,,,,,,,,space,1,0.265,0,13,13,17,1,M,space,,
,,,,,,,,,,,,,,,,WRO90,001,,2024-02-08_10h16.35.333,Trial go no go,2020.2.10,MacIntel,60,IwAR0JRSQvI-iuVEUmDHOPasYt00Nuj786ux6qQ3mzzc2AG3ztO_9hkhK4DRw,,,,,,,,,,,,,,,space,1,0.2866,0,14,14,3,1,T,space,,
,,,,,,,,,,,,,,,,WRO90,001,,2024-02-08_10h16.35.333,Trial go no go,2020.2.10,MacIntel,60,IwAR0JRSQvI-iuVEUmDHOPasYt00Nuj786ux6qQ3mzzc2AG3ztO_9hkhK4DRw,,,,,,,,,,,,,,,space,1,0.3135,0,15,15,2,1,R,space,,
,,,,,,,,,,,,,,,,WRO90,001,,2024-02-08_10h16.35.333,Trial go no go,2020.2.10,MacIntel,60,IwAR0JRSQvI-iuVEUmDHOPasYt00Nuj786ux6qQ3mzzc2AG3ztO_9hkhK4DRw,,,,,,,,,,,,,,,space,1,0.28,0,16,16,22,1,T,space,,
,,,,,,,,,,,,,,,,WRO90,001,,2024-02-08_10h16.35.333,Trial go no go,2020.2.10,MacIntel,60,IwAR0JRSQvI-iuVEUmDHOPasYt00Nuj786ux6qQ3mzzc2AG3ztO_9hkhK4DRw,,,,,,,,,,,,,,,space,1,0.3121,0,17,17,1,1,E,space,,
,,,,,,,,,,,,,,,,WRO90,001,,2024-02-08_10h16.35.333,Trial go no go,2020.2.10,MacIntel,60,IwAR0JRSQvI-iuVEUmDHOPasYt00Nuj786ux6qQ3mzzc2AG3ztO_9hkhK4DRw,,,,,,,,,,,,,,,space,1,0.2775,0,18,18,11,1,K,space,,
,,,,,,,,,,,,,,,,WRO90,001,,2024-02-08_10h16.35.333,Trial go no go,2020.2.10,MacIntel,60,IwAR0JRSQvI-iuVEUmDHOPasYt00Nuj786ux6qQ3mzzc2AG3ztO_9hkhK4DRw,,,,,,,,,,,,,,,space,0,0.2612,0,19,19,14,1,X,none,,
,,,,,,,,,,,,,,,,WRO90,001,,2024-02-08_10h16.35.333,Trial go no go,2020.2.10,MacIntel,60,IwAR0JRSQvI-iuVEUmDHOPasYt00Nuj786ux6qQ3mzzc2AG3ztO_9hkhK4DRw,,,,,,,,,,,,,,,space,1,0.2532,0,20,20,16,1,N,space,,
,,,,,,,,,,,,,,,,WRO90,001,,2024-02-08_10h16.35.333,Trial go no go,2020.2.10,MacIntel,60,IwAR0JRSQvI-iuVEUmDHOPasYt00Nuj786ux6qQ3mzzc2AG3ztO_9hkhK4DRw,,,,,,,,,,,,,,,space,1,0.2504,0,21,21,20,1,E,space,,
,,,,,,,,,,,,,,,,WRO90,001,,2024-02-08_10h16.35.333,Trial go no go,2020.2.10,MacIntel,60,IwAR0JRSQvI-iuVEUmDHOPasYt00Nuj786ux6qQ3mzzc2AG3ztO_9hkhK4DRw,,,,,,,,,,,,,,,space,1,0.2787,0,22,22,45,1,A,space,,
,,,,,,,,,,,,,,,,WRO90,001,,2024-02-08_10h16.35.333,Trial go no go,2020.2.10,MacIntel,60,IwAR0JRSQvI-iuVEUmDHOPasYt00Nuj786ux6qQ3mzzc2AG3ztO_9hkhK4DRw,,,,,,,,,,,,,,,space,1,0.2435,0,23,23,12,1,L,space,,
,,,,,,,,,,,,,,,,WRO90,001,,2024-02-08_10h16.35.333,Trial go no go,2020.2.10,MacIntel,60,IwAR0JRSQvI-iuVEUmDHOPasYt00Nuj786ux6qQ3mzzc2AG3ztO_9hkhK4DRw,,,,,,,,,,,,,,,space,0,0.248,0,24,24,24,1,X,none,,
,,,,,,,,,,,,,,,,WRO90,001,,2024-02-08_10h16.35.333,Trial go no go,2020.2.10,MacIntel,60,IwAR0JRSQvI-iuVEUmDHOPasYt00Nuj786ux6qQ3mzzc2AG3ztO_9hkhK4DRw,,,,,,,,,,,,,,,space,1,0.2457,0,25,25,37,1,W,space,,
,,,,,,,,,,,,,,,,WRO90,001,,2024-02-08_10h16.35.333,Trial go no go,2020.2.10,MacIntel,60,IwAR0JRSQvI-iuVEUmDHOPasYt00Nuj786ux6qQ3mzzc2AG3ztO_9hkhK4DRw,,,,,,,,,,,,,,,space,0,0.243,0,26,26,49,1,X,none,,
,,,,,,,,,,,,,,,,WRO90,001,,2024-02-08_10h16.35.333,Trial go no go,2020.2.10,MacIntel,60,IwAR0JRSQvI-iuVEUmDHOPasYt00Nuj786ux6qQ3mzzc2AG3ztO_9hkhK4DRw,,,,,,,,,,,,,,,space,0,0.2687,0,27,27,19,1,X,none,,
,,,,,,,,,,,,,,,,WRO90,001,,2024-02-08_10h16.35.333,Trial go no go,2020.2.10,MacIntel,60,IwAR0JRSQvI-iuVEUmDHOPasYt00Nuj786ux6qQ3mzzc2AG3ztO_9hkhK4DRw,,,,,,,,,,,,,,,space,0,0.3062,0,28,28,39,1,X,none,,
,,,,,,,,,,,,,,,,WRO90,001,,2024-02-08_10h16.35.333,Trial go no go,2020.2.10,MacIntel,60,IwAR0JRSQvI-iuVEUmDHOPasYt00Nuj786ux6qQ3mzzc2AG3ztO_9hkhK4DRw,,,,,,,,,,,,,,,space,1,0.3681,0,29,29,46,1,F,space,,
,,,,,,,,,,,,,,,,WRO90,001,,2024-02-08_10h16.35.333,Trial go no go,2020.2.10,MacIntel,60,IwAR0JRSQvI-iuVEUmDHOPasYt00Nuj786ux6qQ3mzzc2AG3ztO_9hkhK4DRw,,,,,,,,,,,,,,,space,1,0.2625,0,30,30,15,1,V,space,,
,,,,,,,,,,,,,,,,WRO90,001,,2024-02-08_10h16.35.333,Trial go no go,2020.2.10,MacIntel,60,IwAR0JRSQvI-iuVEUmDHOPasYt00Nuj786ux6qQ3mzzc2AG3ztO_9hkhK4DRw,,,,,,,,,,,,,,,space,1,0.3272,0,31,31,47,1,H,space,,
,,,,,,,,,,,,,,,,WRO90,001,,2024-02-08_10h16.35.333,Trial go no go,2020.2.10,MacIntel,60,IwAR0JRSQvI-iuVEUmDHOPasYt00Nuj786ux6qQ3mzzc2AG3ztO_9hkhK4DRw,,,,,,,,,,,,,,,space,1,0.2987,0,32,32,28,1,H,space,,
,,,,,,,,,,,,,,,,WRO90,001,,2024-02-08_10h16.35.333,Trial go no go,2020.2.10,MacIntel,60,IwAR0JRSQvI-iuVEUmDHOPasYt00Nuj786ux6qQ3mzzc2AG3ztO_9hkhK4DRw,,,,,,,,,,,,,,,,1,,0,33,33,34,1,X,none,,
,,,,,,,,,,,,,,,,WRO90,001,,2024-02-08_10h16.35.333,Trial go no go,2020.2.10,MacIntel,60,IwAR0JRSQvI-iuVEUmDHOPasYt00Nuj786ux6qQ3mzzc2AG3ztO_9hkhK4DRw,,,,,,,,,,,,,,,space,1,0.2926,0,34,34,41,1,T,space,,
,,,,,,,,,,,,,,,,WRO90,001,,2024-02-08_10h16.35.333,Trial go no go,2020.2.10,MacIntel,60,IwAR0JRSQvI-iuVEUmDHOPasYt00Nuj786ux6qQ3mzzc2AG3ztO_9hkhK4DRw,,,,,,,,,,,,,,,space,1,0.4532,0,35,35,43,1,I,space,,
,,,,,,,,,,,,,,,,WRO90,001,,2024-02-08_10h16.35.333,Trial go no go,2020.2.10,MacIntel,60,IwAR0JRSQvI-iuVEUmDHOPasYt00Nuj786ux6qQ3mzzc2AG3ztO_9hkhK4DRw,,,,,,,,,,,,,,,space,1,0.338,0,36,36,8,1,F,space,,
,,,,,,,,,,,,,,,,WRO90,001,,2024-02-08_10h16.35.333,Trial go no go,2020.2.10,MacIntel,60,IwAR0JRSQvI-iuVEUmDHOPasYt00Nuj786ux6qQ3mzzc2AG3ztO_9hkhK4DRw,,,,,,,,,,,,,,,space,0,0.3052,0,37,37,44,1,X,none,,
,,,,,,,,,,,,,,,,WRO90,001,,2024-02-08_10h16.35.333,Trial go no go,2020.2.10,MacIntel,60,IwAR0JRSQvI-iuVEUmDHOPasYt00Nuj786ux6qQ3mzzc2AG3ztO_9hkhK4DRw,,,,,,,,,,,,,,,space,1,0.293,0,38,38,38,1,E,space,,
,,,,,,,,,,,,,,,,WRO90,001,,2024-02-08_10h16.35.333,Trial go no go,2020.2.10,MacIntel,60,IwAR0JRSQvI-iuVEUmDHOPasYt00Nuj786ux6qQ3mzzc2AG3ztO_9hkhK4DRw,,,,,,,,,,,,,,,space,1,0.3107,0,39,39,23,1,Y,space,,
,,,,,,,,,,,,,,,,WRO90,001,,2024-02-08_10h16.35.333,Trial go no go,2020.2.10,MacIntel,60,IwAR0JRSQvI-iuVEUmDHOPasYt00Nuj786ux6qQ3mzzc2AG3ztO_9hkhK4DRw,,,,,,,,,,,,,,,space,1,0.304,0,40,40,6,1,I,space,,
,,,,,,,,,,,,,,,,WRO90,001,,2024-02-08_10h16.35.333,Trial go no go,2020.2.10,MacIntel,60,IwAR0JRSQvI-iuVEUmDHOPasYt00Nuj786ux6qQ3mzzc2AG3ztO_9hkhK4DRw,,,,,,,,,,,,,,,space,1,0.3778,0,41,41,36,1,M,space,,
,,,,,,,,,,,,,,,,WRO90,001,,2024-02-08_10h16.35.333,Trial go no go,2020.2.10,MacIntel,60,IwAR0JRSQvI-iuVEUmDHOPasYt00Nuj786ux6qQ3mzzc2AG3ztO_9hkhK4DRw,,,,,,,,,,,,,,,space,1,0.3783,0,42,42,35,1,N,space,,
,,,,,,,,,,,,,,,,WRO90,001,,2024-02-08_10h16.35.333,Trial go no go,2020.2.10,MacIntel,60,IwAR0JRSQvI-iuVEUmDHOPasYt00Nuj786ux6qQ3mzzc2AG3ztO_9hkhK4DRw,,,,,,,,,,,,,,,space,1,0.2739,0,43,43,33,1,V,space,,
,,,,,,,,,,,,,,,,WRO90,001,,2024-02-08_10h16.35.333,Trial go no go,2020.2.10,MacIntel,60,IwAR0JRSQvI-iuVEUmDHOPasYt00Nuj786ux6qQ3mzzc2AG3ztO_9hkhK4DRw,,,,,,,,,,,,,,,space,0,0.2866,0,44,44,29,1,X,none,,
,,,,,,,,,,,,,,,,WRO90,001,,2024-02-08_10h16.35.333,Trial go no go,2020.2.10,MacIntel,60,IwAR0JRSQvI-iuVEUmDHOPasYt00Nuj786ux6qQ3mzzc2AG3ztO_9hkhK4DRw,,,,,,,,,,,,,,,space,1,0.2609,0,45,45,5,1,Y,space,,
,,,,,,,,,,,,,,,,WRO90,001,,2024-02-08_10h16.35.333,Trial go no go,2020.2.10,MacIntel,60,IwAR0JRSQvI-iuVEUmDHOPasYt00Nuj786ux6qQ3mzzc2AG3ztO_9hkhK4DRw,,,,,,,,,,,,,,,space,1,0.3082,0,46,46,48,1,K,space,,
,,,,,,,,,,,,,,,,WRO90,001,,2024-02-08_10h16.35.333,Trial go no go,2020.2.10,MacIntel,60,IwAR0JRSQvI-iuVEUmDHOPasYt00Nuj786ux6qQ3mzzc2AG3ztO_9hkhK4DRw,,,,,,,,,,,,,,,space,1,0.2847,0,47,47,0,1,W,space,,
,,,,,,,,,,,,,,,,WRO90,001,,2024-02-08_10h16.35.333,Trial go no go,2020.2.10,MacIntel,60,IwAR0JRSQvI-iuVEUmDHOPasYt00Nuj786ux6qQ3mzzc2AG3ztO_9hkhK4DRw,,,,,,,,,,,,,,,space,1,0.362,0,48,48,26,1,A,space,,
,,,,,,,,,,,,,,,,WRO90,001,,2024-02-08_10h16.35.333,Trial go no go,2020.2.10,MacIntel,60,IwAR0JRSQvI-iuVEUmDHOPasYt00Nuj786ux6qQ3mzzc2AG3ztO_9hkhK4DRw,,,,,,,,,,,,,,,space,1,0.2868,0,49,49,30,1,K,space,,
,,,,,,,,,,,,,,,,WRO90,001,,2024-02-08_10h16.35.333,Trial go no go,2020.2.10,MacIntel,60,IwAR0JRSQvI-iuVEUmDHOPasYt00Nuj786ux6qQ3mzzc2AG3ztO_9hkhK4DRw,,,,,,,,,,,,,,,,,,,,,,,,,space,14.8681
