resp_Welcome.keys,resp_Welcome.rt,resp_Instr_Intro.keys,resp_Instr_Intro.rt,resp_Instr_Prac1.keys,resp_Instr_Prac1.rt,resp_trial_Prac1.keys,resp_trial_Prac1.corr,resp_trial_Prac1.rt,prac_trials.thisRepN,prac_trials.thisTrialN,prac_trials.thisN,prac_trials.thisIndex,prac_trials.ran,stimulus_prac1,corrAns_prac1,participant,session,indywidualny kod,date,expName,psychopyVersion,OS,frameRate,fbclid,resp_Instr_Test1.keys,resp_Instr_Test1.rt,resp_trial_Test1.keys,resp_trial_Test1.corr,resp_trial_Test1.rt,test1trial.thisRepN,test1trial.thisTrialN,test1trial.thisN,test1trial.thisIndex,test1trial.ran,stimulus_test1,corrAns_test1,resp_Instr_Test2.keys,resp_Instr_Test2.rt,key_resp_Test2.keys,key_resp_Test2.corr,key_resp_Test2.rt,test2trial.thisRepN,test2trial.thisTrialN,test2trial.thisN,test2trial.thisIndex,test2trial.ran,stimulus_test2,corrAns_test2,resp_theEnd.keys,resp_theEnd.rt
space,7.5403,space,10.0387,space,9.3875,space,1,0.5644,0,0,0,8,1,X,space,WRO92,001,,2024-02-22_08h52.32.784,Trial go no go,2020.2.10,MacIntel,60,IwAR2dq6wCE_KoPa_GJJmT51JHAUWGSE8gVmZBCK6vI5dVoOeT6fo_PC25p5A,,,,,,,,,,,,,,,,,,,,,,,,,,
,,,,,,space,1,0.6239,0,1,1,5,1,X,space,WRO92,001,,2024-02-22_08h52.32.784,Trial go no go,2020.2.10,MacIntel,60,IwAR2dq6wCE_KoPa_GJJmT51JHAUWGSE8gVmZBCK6vI5dVoOeT6fo_PC25p5A,,,,,,,,,,,,,,,,,,,,,,,,,,
,,,,,,space,1,0.4994,0,2,2,7,1,X,space,WRO92,001,,2024-02-22_08h52.32.784,Trial go no go,2020.2.10,MacIntel,60,IwAR2dq6wCE_KoPa_GJJmT51JHAUWGSE8gVmZBCK6vI5dVoOeT6fo_PC25p5A,,,,,,,,,,,,,,,,,,,,,,,,,,
,,,,,,,1,,0,3,3,9,1,V,none,WRO92,001,,2024-02-22_08h52.32.784,Trial go no go,2020.2.10,MacIntel,60,IwAR2dq6wCE_KoPa_GJJmT51JHAUWGSE8gVmZBCK6vI5dVoOeT6fo_PC25p5A,,,,,,,,,,,,,,,,,,,,,,,,,,
,,,,,,space,1,0.5117,0,4,4,2,1,X,space,WRO92,001,,2024-02-22_08h52.32.784,Trial go no go,2020.2.10,MacIntel,60,IwAR2dq6wCE_KoPa_GJJmT51JHAUWGSE8gVmZBCK6vI5dVoOeT6fo_PC25p5A,,,,,,,,,,,,,,,,,,,,,,,,,,
,,,,,,space,1,0.5341,0,5,5,0,1,X,space,WRO92,001,,2024-02-22_08h52.32.784,Trial go no go,2020.2.10,MacIntel,60,IwAR2dq6wCE_KoPa_GJJmT51JHAUWGSE8gVmZBCK6vI5dVoOeT6fo_PC25p5A,,,,,,,,,,,,,,,,,,,,,,,,,,
,,,,,,,1,,0,6,6,14,1,K,none,WRO92,001,,2024-02-22_08h52.32.784,Trial go no go,2020.2.10,MacIntel,60,IwAR2dq6wCE_KoPa_GJJmT51JHAUWGSE8gVmZBCK6vI5dVoOeT6fo_PC25p5A,,,,,,,,,,,,,,,,,,,,,,,,,,
,,,,,,space,1,0.5676,0,7,7,12,1,X,space,WRO92,001,,2024-02-22_08h52.32.784,Trial go no go,2020.2.10,MacIntel,60,IwAR2dq6wCE_KoPa_GJJmT51JHAUWGSE8gVmZBCK6vI5dVoOeT6fo_PC25p5A,,,,,,,,,,,,,,,,,,,,,,,,,,
,,,,,,space,1,0.54,0,8,8,1,1,X,space,WRO92,001,,2024-02-22_08h52.32.784,Trial go no go,2020.2.10,MacIntel,60,IwAR2dq6wCE_KoPa_GJJmT51JHAUWGSE8gVmZBCK6vI5dVoOeT6fo_PC25p5A,,,,,,,,,,,,,,,,,,,,,,,,,,
,,,,,,space,1,0.5471,0,9,9,3,1,X,space,WRO92,001,,2024-02-22_08h52.32.784,Trial go no go,2020.2.10,MacIntel,60,IwAR2dq6wCE_KoPa_GJJmT51JHAUWGSE8gVmZBCK6vI5dVoOeT6fo_PC25p5A,,,,,,,,,,,,,,,,,,,,,,,,,,
,,,,,,,1,,0,10,10,4,1,W,none,WRO92,001,,2024-02-22_08h52.32.784,Trial go no go,2020.2.10,MacIntel,60,IwAR2dq6wCE_KoPa_GJJmT51JHAUWGSE8gVmZBCK6vI5dVoOeT6fo_PC25p5A,,,,,,,,,,,,,,,,,,,,,,,,,,
,,,,,,space,1,0.6747,0,11,11,11,1,X,space,WRO92,001,,2024-02-22_08h52.32.784,Trial go no go,2020.2.10,MacIntel,60,IwAR2dq6wCE_KoPa_GJJmT51JHAUWGSE8gVmZBCK6vI5dVoOeT6fo_PC25p5A,,,,,,,,,,,,,,,,,,,,,,,,,,
,,,,,,space,1,0.5778,0,12,12,10,1,X,space,WRO92,001,,2024-02-22_08h52.32.784,Trial go no go,2020.2.10,MacIntel,60,IwAR2dq6wCE_KoPa_GJJmT51JHAUWGSE8gVmZBCK6vI5dVoOeT6fo_PC25p5A,,,,,,,,,,,,,,,,,,,,,,,,,,
,,,,,,space,1,0.5322,0,13,13,6,1,X,space,WRO92,001,,2024-02-22_08h52.32.784,Trial go no go,2020.2.10,MacIntel,60,IwAR2dq6wCE_KoPa_GJJmT51JHAUWGSE8gVmZBCK6vI5dVoOeT6fo_PC25p5A,,,,,,,,,,,,,,,,,,,,,,,,,,
,,,,,,space,1,0.5235,0,14,14,13,1,X,space,WRO92,001,,2024-02-22_08h52.32.784,Trial go no go,2020.2.10,MacIntel,60,IwAR2dq6wCE_KoPa_GJJmT51JHAUWGSE8gVmZBCK6vI5dVoOeT6fo_PC25p5A,,,,,,,,,,,,,,,,,,,,,,,,,,
,,,,,,,,,,,,,,,,WRO92,001,,2024-02-22_08h52.32.784,Trial go no go,2020.2.10,MacIntel,60,IwAR2dq6wCE_KoPa_GJJmT51JHAUWGSE8gVmZBCK6vI5dVoOeT6fo_PC25p5A,space,6.1774,space,1,0.4713,0,0,0,2,1,X,space,,,,,,,,,,,,,,
,,,,,,,,,,,,,,,,WRO92,001,,2024-02-22_08h52.32.784,Trial go no go,2020.2.10,MacIntel,60,IwAR2dq6wCE_KoPa_GJJmT51JHAUWGSE8gVmZBCK6vI5dVoOeT6fo_PC25p5A,,,space,1,0.4705,0,1,1,30,1,X,space,,,,,,,,,,,,,,
,,,,,,,,,,,,,,,,WRO92,001,,2024-02-22_08h52.32.784,Trial go no go,2020.2.10,MacIntel,60,IwAR2dq6wCE_KoPa_GJJmT51JHAUWGSE8gVmZBCK6vI5dVoOeT6fo_PC25p5A,,,space,1,0.4186,0,2,2,41,1,X,space,,,,,,,,,,,,,,
,,,,,,,,,,,,,,,,WRO92,001,,2024-02-22_08h52.32.784,Trial go no go,2020.2.10,MacIntel,60,IwAR2dq6wCE_KoPa_GJJmT51JHAUWGSE8gVmZBCK6vI5dVoOeT6fo_PC25p5A,,,space,1,0.3436,0,3,3,20,1,X,space,,,,,,,,,,,,,,
,,,,,,,,,,,,,,,,WRO92,001,,2024-02-22_08h52.32.784,Trial go no go,2020.2.10,MacIntel,60,IwAR2dq6wCE_KoPa_GJJmT51JHAUWGSE8gVmZBCK6vI5dVoOeT6fo_PC25p5A,,,space,1,0.3656,0,4,4,1,1,X,space,,,,,,,,,,,,,,
,,,,,,,,,,,,,,,,WRO92,001,,2024-02-22_08h52.32.784,Trial go no go,2020.2.10,MacIntel,60,IwAR2dq6wCE_KoPa_GJJmT51JHAUWGSE8gVmZBCK6vI5dVoOeT6fo_PC25p5A,,,space,1,0.3542,0,5,5,18,1,X,space,,,,,,,,,,,,,,
,,,,,,,,,,,,,,,,WRO92,001,,2024-02-22_08h52.32.784,Trial go no go,2020.2.10,MacIntel,60,IwAR2dq6wCE_KoPa_GJJmT51JHAUWGSE8gVmZBCK6vI5dVoOeT6fo_PC25p5A,,,space,1,0.3705,0,6,6,12,1,X,space,,,,,,,,,,,,,,
,,,,,,,,,,,,,,,,WRO92,001,,2024-02-22_08h52.32.784,Trial go no go,2020.2.10,MacIntel,60,IwAR2dq6wCE_KoPa_GJJmT51JHAUWGSE8gVmZBCK6vI5dVoOeT6fo_PC25p5A,,,,1,,0,7,7,9,1,W,none,,,,,,,,,,,,,,
,,,,,,,,,,,,,,,,WRO92,001,,2024-02-22_08h52.32.784,Trial go no go,2020.2.10,MacIntel,60,IwAR2dq6wCE_KoPa_GJJmT51JHAUWGSE8gVmZBCK6vI5dVoOeT6fo_PC25p5A,,,,1,,0,8,8,29,1,T,none,,,,,,,,,,,,,,
,,,,,,,,,,,,,,,,WRO92,001,,2024-02-22_08h52.32.784,Trial go no go,2020.2.10,MacIntel,60,IwAR2dq6wCE_KoPa_GJJmT51JHAUWGSE8gVmZBCK6vI5dVoOeT6fo_PC25p5A,,,,1,,0,9,9,19,1,K,none,,,,,,,,,,,,,,
,,,,,,,,,,,,,,,,WRO92,001,,2024-02-22_08h52.32.784,Trial go no go,2020.2.10,MacIntel,60,IwAR2dq6wCE_KoPa_GJJmT51JHAUWGSE8gVmZBCK6vI5dVoOeT6fo_PC25p5A,,,,1,,0,10,10,49,1,E,none,,,,,,,,,,,,,,
,,,,,,,,,,,,,,,,WRO92,001,,2024-02-22_08h52.32.784,Trial go no go,2020.2.10,MacIntel,60,IwAR2dq6wCE_KoPa_GJJmT51JHAUWGSE8gVmZBCK6vI5dVoOeT6fo_PC25p5A,,,,1,,0,11,11,44,1,F,none,,,,,,,,,,,,,,
,,,,,,,,,,,,,,,,WRO92,001,,2024-02-22_08h52.32.784,Trial go no go,2020.2.10,MacIntel,60,IwAR2dq6wCE_KoPa_GJJmT51JHAUWGSE8gVmZBCK6vI5dVoOeT6fo_PC25p5A,,,space,1,0.463,0,12,12,21,1,X,space,,,,,,,,,,,,,,
,,,,,,,,,,,,,,,,WRO92,001,,2024-02-22_08h52.32.784,Trial go no go,2020.2.10,MacIntel,60,IwAR2dq6wCE_KoPa_GJJmT51JHAUWGSE8gVmZBCK6vI5dVoOeT6fo_PC25p5A,,,,1,,0,13,13,14,1,Y,none,,,,,,,,,,,,,,
,,,,,,,,,,,,,,,,WRO92,001,,2024-02-22_08h52.32.784,Trial go no go,2020.2.10,MacIntel,60,IwAR2dq6wCE_KoPa_GJJmT51JHAUWGSE8gVmZBCK6vI5dVoOeT6fo_PC25p5A,,,space,1,0.3956,0,14,14,15,1,X,space,,,,,,,,,,,,,,
,,,,,,,,,,,,,,,,WRO92,001,,2024-02-22_08h52.32.784,Trial go no go,2020.2.10,MacIntel,60,IwAR2dq6wCE_KoPa_GJJmT51JHAUWGSE8gVmZBCK6vI5dVoOeT6fo_PC25p5A,,,space,1,0.3983,0,15,15,33,1,X,space,,,,,,,,,,,,,,
,,,,,,,,,,,,,,,,WRO92,001,,2024-02-22_08h52.32.784,Trial go no go,2020.2.10,MacIntel,60,IwAR2dq6wCE_KoPa_GJJmT51JHAUWGSE8gVmZBCK6vI5dVoOeT6fo_PC25p5A,,,space,1,0.4015,0,16,16,35,1,X,space,,,,,,,,,,,,,,
,,,,,,,,,,,,,,,,WRO92,001,,2024-02-22_08h52.32.784,Trial go no go,2020.2.10,MacIntel,60,IwAR2dq6wCE_KoPa_GJJmT51JHAUWGSE8gVmZBCK6vI5dVoOeT6fo_PC25p5A,,,,1,,0,17,17,24,1,H,none,,,,,,,,,,,,,,
,,,,,,,,,,,,,,,,WRO92,001,,2024-02-22_08h52.32.784,Trial go no go,2020.2.10,MacIntel,60,IwAR2dq6wCE_KoPa_GJJmT51JHAUWGSE8gVmZBCK6vI5dVoOeT6fo_PC25p5A,,,space,1,0.4275,0,18,18,45,1,X,space,,,,,,,,,,,,,,
,,,,,,,,,,,,,,,,WRO92,001,,2024-02-22_08h52.32.784,Trial go no go,2020.2.10,MacIntel,60,IwAR2dq6wCE_KoPa_GJJmT51JHAUWGSE8gVmZBCK6vI5dVoOeT6fo_PC25p5A,,,space,1,0.404,0,19,19,6,1,X,space,,,,,,,,,,,,,,
,,,,,,,,,,,,,,,,WRO92,001,,2024-02-22_08h52.32.784,Trial go no go,2020.2.10,MacIntel,60,IwAR2dq6wCE_KoPa_GJJmT51JHAUWGSE8gVmZBCK6vI5dVoOeT6fo_PC25p5A,,,space,1,0.357,0,20,20,28,1,X,space,,,,,,,,,,,,,,
,,,,,,,,,,,,,,,,WRO92,001,,2024-02-22_08h52.32.784,Trial go no go,2020.2.10,MacIntel,60,IwAR2dq6wCE_KoPa_GJJmT51JHAUWGSE8gVmZBCK6vI5dVoOeT6fo_PC25p5A,,,,1,,0,21,21,34,1,N,none,,,,,,,,,,,,,,
,,,,,,,,,,,,,,,,WRO92,001,,2024-02-22_08h52.32.784,Trial go no go,2020.2.10,MacIntel,60,IwAR2dq6wCE_KoPa_GJJmT51JHAUWGSE8gVmZBCK6vI5dVoOeT6fo_PC25p5A,,,space,1,0.4318,0,22,22,32,1,X,space,,,,,,,,,,,,,,
,,,,,,,,,,,,,,,,WRO92,001,,2024-02-22_08h52.32.784,Trial go no go,2020.2.10,MacIntel,60,IwAR2dq6wCE_KoPa_GJJmT51JHAUWGSE8gVmZBCK6vI5dVoOeT6fo_PC25p5A,,,space,1,0.3831,0,23,23,13,1,X,space,,,,,,,,,,,,,,
,,,,,,,,,,,,,,,,WRO92,001,,2024-02-22_08h52.32.784,Trial go no go,2020.2.10,MacIntel,60,IwAR2dq6wCE_KoPa_GJJmT51JHAUWGSE8gVmZBCK6vI5dVoOeT6fo_PC25p5A,,,space,1,0.3393,0,24,24,40,1,X,space,,,,,,,,,,,,,,
,,,,,,,,,,,,,,,,WRO92,001,,2024-02-22_08h52.32.784,Trial go no go,2020.2.10,MacIntel,60,IwAR2dq6wCE_KoPa_GJJmT51JHAUWGSE8gVmZBCK6vI5dVoOeT6fo_PC25p5A,,,space,1,0.3537,0,25,25,16,1,X,space,,,,,,,,,,,,,,
,,,,,,,,,,,,,,,,WRO92,001,,2024-02-22_08h52.32.784,Trial go no go,2020.2.10,MacIntel,60,IwAR2dq6wCE_KoPa_GJJmT51JHAUWGSE8gVmZBCK6vI5dVoOeT6fo_PC25p5A,,,,1,,0,26,26,39,1,M,none,,,,,,,,,,,,,,
,,,,,,,,,,,,,,,,WRO92,001,,2024-02-22_08h52.32.784,Trial go no go,2020.2.10,MacIntel,60,IwAR2dq6wCE_KoPa_GJJmT51JHAUWGSE8gVmZBCK6vI5dVoOeT6fo_PC25p5A,,,space,1,0.3953,0,27,27,23,1,X,space,,,,,,,,,,,,,,
,,,,,,,,,,,,,,,,WRO92,001,,2024-02-22_08h52.32.784,Trial go no go,2020.2.10,MacIntel,60,IwAR2dq6wCE_KoPa_GJJmT51JHAUWGSE8gVmZBCK6vI5dVoOeT6fo_PC25p5A,,,space,1,0.3688,0,28,28,5,1,X,space,,,,,,,,,,,,,,
,,,,,,,,,,,,,,,,WRO92,001,,2024-02-22_08h52.32.784,Trial go no go,2020.2.10,MacIntel,60,IwAR2dq6wCE_KoPa_GJJmT51JHAUWGSE8gVmZBCK6vI5dVoOeT6fo_PC25p5A,,,space,1,0.3658,0,29,29,42,1,X,space,,,,,,,,,,,,,,
,,,,,,,,,,,,,,,,WRO92,001,,2024-02-22_08h52.32.784,Trial go no go,2020.2.10,MacIntel,60,IwAR2dq6wCE_KoPa_GJJmT51JHAUWGSE8gVmZBCK6vI5dVoOeT6fo_PC25p5A,,,space,1,0.3531,0,30,30,11,1,X,space,,,,,,,,,,,,,,
,,,,,,,,,,,,,,,,WRO92,001,,2024-02-22_08h52.32.784,Trial go no go,2020.2.10,MacIntel,60,IwAR2dq6wCE_KoPa_GJJmT51JHAUWGSE8gVmZBCK6vI5dVoOeT6fo_PC25p5A,,,space,1,0.3667,0,31,31,7,1,X,space,,,,,,,,,,,,,,
,,,,,,,,,,,,,,,,WRO92,001,,2024-02-22_08h52.32.784,Trial go no go,2020.2.10,MacIntel,60,IwAR2dq6wCE_KoPa_GJJmT51JHAUWGSE8gVmZBCK6vI5dVoOeT6fo_PC25p5A,,,space,1,0.3327,0,32,32,3,1,X,space,,,,,,,,,,,,,,
,,,,,,,,,,,,,,,,WRO92,001,,2024-02-22_08h52.32.784,Trial go no go,2020.2.10,MacIntel,60,IwAR2dq6wCE_KoPa_GJJmT51JHAUWGSE8gVmZBCK6vI5dVoOeT6fo_PC25p5A,,,space,1,0.3819,0,33,33,47,1,X,space,,,,,,,,,,,,,,
,,,,,,,,,,,,,,,,WRO92,001,,2024-02-22_08h52.32.784,Trial go no go,2020.2.10,MacIntel,60,IwAR2dq6wCE_KoPa_GJJmT51JHAUWGSE8gVmZBCK6vI5dVoOeT6fo_PC25p5A,,,space,1,0.3367,0,34,34,48,1,X,space,,,,,,,,,,,,,,
,,,,,,,,,,,,,,,,WRO92,001,,2024-02-22_08h52.32.784,Trial go no go,2020.2.10,MacIntel,60,IwAR2dq6wCE_KoPa_GJJmT51JHAUWGSE8gVmZBCK6vI5dVoOeT6fo_PC25p5A,,,,1,,0,35,35,4,1,V,none,,,,,,,,,,,,,,
,,,,,,,,,,,,,,,,WRO92,001,,2024-02-22_08h52.32.784,Trial go no go,2020.2.10,MacIntel,60,IwAR2dq6wCE_KoPa_GJJmT51JHAUWGSE8gVmZBCK6vI5dVoOeT6fo_PC25p5A,,,space,1,0.4275,0,36,36,38,1,X,space,,,,,,,,,,,,,,
,,,,,,,,,,,,,,,,WRO92,001,,2024-02-22_08h52.32.784,Trial go no go,2020.2.10,MacIntel,60,IwAR2dq6wCE_KoPa_GJJmT51JHAUWGSE8gVmZBCK6vI5dVoOeT6fo_PC25p5A,,,space,1,0.3649,0,37,37,10,1,X,space,,,,,,,,,,,,,,
,,,,,,,,,,,,,,,,WRO92,001,,2024-02-22_08h52.32.784,Trial go no go,2020.2.10,MacIntel,60,IwAR2dq6wCE_KoPa_GJJmT51JHAUWGSE8gVmZBCK6vI5dVoOeT6fo_PC25p5A,,,space,1,0.3591,0,38,38,17,1,X,space,,,,,,,,,,,,,,
,,,,,,,,,,,,,,,,WRO92,001,,2024-02-22_08h52.32.784,Trial go no go,2020.2.10,MacIntel,60,IwAR2dq6wCE_KoPa_GJJmT51JHAUWGSE8gVmZBCK6vI5dVoOeT6fo_PC25p5A,,,space,1,0.3648,0,39,39,43,1,X,space,,,,,,,,,,,,,,
,,,,,,,,,,,,,,,,WRO92,001,,2024-02-22_08h52.32.784,Trial go no go,2020.2.10,MacIntel,60,IwAR2dq6wCE_KoPa_GJJmT51JHAUWGSE8gVmZBCK6vI5dVoOeT6fo_PC25p5A,,,space,1,0.356,0,40,40,46,1,X,space,,,,,,,,,,,,,,
,,,,,,,,,,,,,,,,WRO92,001,,2024-02-22_08h52.32.784,Trial go no go,2020.2.10,MacIntel,60,IwAR2dq6wCE_KoPa_GJJmT51JHAUWGSE8gVmZBCK6vI5dVoOeT6fo_PC25p5A,,,space,1,0.3661,0,41,41,37,1,X,space,,,,,,,,,,,,,,
,,,,,,,,,,,,,,,,WRO92,001,,2024-02-22_08h52.32.784,Trial go no go,2020.2.10,MacIntel,60,IwAR2dq6wCE_KoPa_GJJmT51JHAUWGSE8gVmZBCK6vI5dVoOeT6fo_PC25p5A,,,space,1,0.3525,0,42,42,31,1,X,space,,,,,,,,,,,,,,
,,,,,,,,,,,,,,,,WRO92,001,,2024-02-22_08h52.32.784,Trial go no go,2020.2.10,MacIntel,60,IwAR2dq6wCE_KoPa_GJJmT51JHAUWGSE8gVmZBCK6vI5dVoOeT6fo_PC25p5A,,,space,1,0.3578,0,43,43,8,1,X,space,,,,,,,,,,,,,,
,,,,,,,,,,,,,,,,WRO92,001,,2024-02-22_08h52.32.784,Trial go no go,2020.2.10,MacIntel,60,IwAR2dq6wCE_KoPa_GJJmT51JHAUWGSE8gVmZBCK6vI5dVoOeT6fo_PC25p5A,,,space,1,0.3701,0,44,44,25,1,X,space,,,,,,,,,,,,,,
,,,,,,,,,,,,,,,,WRO92,001,,2024-02-22_08h52.32.784,Trial go no go,2020.2.10,MacIntel,60,IwAR2dq6wCE_KoPa_GJJmT51JHAUWGSE8gVmZBCK6vI5dVoOeT6fo_PC25p5A,,,space,1,0.3406,0,45,45,27,1,X,space,,,,,,,,,,,,,,
,,,,,,,,,,,,,,,,WRO92,001,,2024-02-22_08h52.32.784,Trial go no go,2020.2.10,MacIntel,60,IwAR2dq6wCE_KoPa_GJJmT51JHAUWGSE8gVmZBCK6vI5dVoOeT6fo_PC25p5A,,,space,1,0.3324,0,46,46,26,1,X,space,,,,,,,,,,,,,,
,,,,,,,,,,,,,,,,WRO92,001,,2024-02-22_08h52.32.784,Trial go no go,2020.2.10,MacIntel,60,IwAR2dq6wCE_KoPa_GJJmT51JHAUWGSE8gVmZBCK6vI5dVoOeT6fo_PC25p5A,,,space,1,0.3386,0,47,47,0,1,X,space,,,,,,,,,,,,,,
,,,,,,,,,,,,,,,,WRO92,001,,2024-02-22_08h52.32.784,Trial go no go,2020.2.10,MacIntel,60,IwAR2dq6wCE_KoPa_GJJmT51JHAUWGSE8gVmZBCK6vI5dVoOeT6fo_PC25p5A,,,space,1,0.3356,0,48,48,22,1,X,space,,,,,,,,,,,,,,
,,,,,,,,,,,,,,,,WRO92,001,,2024-02-22_08h52.32.784,Trial go no go,2020.2.10,MacIntel,60,IwAR2dq6wCE_KoPa_GJJmT51JHAUWGSE8gVmZBCK6vI5dVoOeT6fo_PC25p5A,,,space,1,0.3355,0,49,49,36,1,X,space,,,,,,,,,,,,,,
,,,,,,,,,,,,,,,,WRO92,001,,2024-02-22_08h52.32.784,Trial go no go,2020.2.10,MacIntel,60,IwAR2dq6wCE_KoPa_GJJmT51JHAUWGSE8gVmZBCK6vI5dVoOeT6fo_PC25p5A,,,,,,,,,,,,,z,19.1416,space,1,0.6731,0,0,0,10,1,H,space,,
,,,,,,,,,,,,,,,,WRO92,001,,2024-02-22_08h52.32.784,Trial go no go,2020.2.10,MacIntel,60,IwAR2dq6wCE_KoPa_GJJmT51JHAUWGSE8gVmZBCK6vI5dVoOeT6fo_PC25p5A,,,,,,,,,,,,,,,space,1,0.6083,0,1,1,37,1,W,space,,
,,,,,,,,,,,,,,,,WRO92,001,,2024-02-22_08h52.32.784,Trial go no go,2020.2.10,MacIntel,60,IwAR2dq6wCE_KoPa_GJJmT51JHAUWGSE8gVmZBCK6vI5dVoOeT6fo_PC25p5A,,,,,,,,,,,,,,,space,1,0.4016,0,2,2,26,1,A,space,,
,,,,,,,,,,,,,,,,WRO92,001,,2024-02-22_08h52.32.784,Trial go no go,2020.2.10,MacIntel,60,IwAR2dq6wCE_KoPa_GJJmT51JHAUWGSE8gVmZBCK6vI5dVoOeT6fo_PC25p5A,,,,,,,,,,,,,,,space,1,0.4644,0,3,3,5,1,Y,space,,
,,,,,,,,,,,,,,,,WRO92,001,,2024-02-22_08h52.32.784,Trial go no go,2020.2.10,MacIntel,60,IwAR2dq6wCE_KoPa_GJJmT51JHAUWGSE8gVmZBCK6vI5dVoOeT6fo_PC25p5A,,,,,,,,,,,,,,,space,1,0.3848,0,4,4,13,1,Z,space,,
,,,,,,,,,,,,,,,,WRO92,001,,2024-02-22_08h52.32.784,Trial go no go,2020.2.10,MacIntel,60,IwAR2dq6wCE_KoPa_GJJmT51JHAUWGSE8gVmZBCK6vI5dVoOeT6fo_PC25p5A,,,,,,,,,,,,,,,space,1,0.3359,0,5,5,42,1,Y,space,,
,,,,,,,,,,,,,,,,WRO92,001,,2024-02-22_08h52.32.784,Trial go no go,2020.2.10,MacIntel,60,IwAR2dq6wCE_KoPa_GJJmT51JHAUWGSE8gVmZBCK6vI5dVoOeT6fo_PC25p5A,,,,,,,,,,,,,,,space,1,0.3617,0,6,6,46,1,F,space,,
,,,,,,,,,,,,,,,,WRO92,001,,2024-02-22_08h52.32.784,Trial go no go,2020.2.10,MacIntel,60,IwAR2dq6wCE_KoPa_GJJmT51JHAUWGSE8gVmZBCK6vI5dVoOeT6fo_PC25p5A,,,,,,,,,,,,,,,space,1,0.296,0,7,7,7,1,A,space,,
,,,,,,,,,,,,,,,,WRO92,001,,2024-02-22_08h52.32.784,Trial go no go,2020.2.10,MacIntel,60,IwAR2dq6wCE_KoPa_GJJmT51JHAUWGSE8gVmZBCK6vI5dVoOeT6fo_PC25p5A,,,,,,,,,,,,,,,space,1,0.3622,0,8,8,18,1,W,space,,
,,,,,,,,,,,,,,,,WRO92,001,,2024-02-22_08h52.32.784,Trial go no go,2020.2.10,MacIntel,60,IwAR2dq6wCE_KoPa_GJJmT51JHAUWGSE8gVmZBCK6vI5dVoOeT6fo_PC25p5A,,,,,,,,,,,,,,,space,0,0.2949,0,9,9,44,1,X,none,,
,,,,,,,,,,,,,,,,WRO92,001,,2024-02-22_08h52.32.784,Trial go no go,2020.2.10,MacIntel,60,IwAR2dq6wCE_KoPa_GJJmT51JHAUWGSE8gVmZBCK6vI5dVoOeT6fo_PC25p5A,,,,,,,,,,,,,,,space,1,0.3626,0,10,10,1,1,E,space,,
,,,,,,,,,,,,,,,,WRO92,001,,2024-02-22_08h52.32.784,Trial go no go,2020.2.10,MacIntel,60,IwAR2dq6wCE_KoPa_GJJmT51JHAUWGSE8gVmZBCK6vI5dVoOeT6fo_PC25p5A,,,,,,,,,,,,,,,space,1,0.3515,0,11,11,48,1,K,space,,
,,,,,,,,,,,,,,,,WRO92,001,,2024-02-22_08h52.32.784,Trial go no go,2020.2.10,MacIntel,60,IwAR2dq6wCE_KoPa_GJJmT51JHAUWGSE8gVmZBCK6vI5dVoOeT6fo_PC25p5A,,,,,,,,,,,,,,,space,1,0.2619,0,12,12,0,1,W,space,,
,,,,,,,,,,,,,,,,WRO92,001,,2024-02-22_08h52.32.784,Trial go no go,2020.2.10,MacIntel,60,IwAR2dq6wCE_KoPa_GJJmT51JHAUWGSE8gVmZBCK6vI5dVoOeT6fo_PC25p5A,,,,,,,,,,,,,,,space,1,0.3383,0,13,13,2,1,R,space,,
,,,,,,,,,,,,,,,,WRO92,001,,2024-02-22_08h52.32.784,Trial go no go,2020.2.10,MacIntel,60,IwAR2dq6wCE_KoPa_GJJmT51JHAUWGSE8gVmZBCK6vI5dVoOeT6fo_PC25p5A,,,,,,,,,,,,,,,space,1,0.2986,0,14,14,6,1,I,space,,
,,,,,,,,,,,,,,,,WRO92,001,,2024-02-22_08h52.32.784,Trial go no go,2020.2.10,MacIntel,60,IwAR2dq6wCE_KoPa_GJJmT51JHAUWGSE8gVmZBCK6vI5dVoOeT6fo_PC25p5A,,,,,,,,,,,,,,,space,0,0.2813,0,15,15,29,1,X,none,,
,,,,,,,,,,,,,,,,WRO92,001,,2024-02-22_08h52.32.784,Trial go no go,2020.2.10,MacIntel,60,IwAR2dq6wCE_KoPa_GJJmT51JHAUWGSE8gVmZBCK6vI5dVoOeT6fo_PC25p5A,,,,,,,,,,,,,,,space,1,0.3756,0,16,16,22,1,T,space,,
,,,,,,,,,,,,,,,,WRO92,001,,2024-02-22_08h52.32.784,Trial go no go,2020.2.10,MacIntel,60,IwAR2dq6wCE_KoPa_GJJmT51JHAUWGSE8gVmZBCK6vI5dVoOeT6fo_PC25p5A,,,,,,,,,,,,,,,space,1,0.3673,0,17,17,32,1,Z,space,,
,,,,,,,,,,,,,,,,WRO92,001,,2024-02-22_08h52.32.784,Trial go no go,2020.2.10,MacIntel,60,IwAR2dq6wCE_KoPa_GJJmT51JHAUWGSE8gVmZBCK6vI5dVoOeT6fo_PC25p5A,,,,,,,,,,,,,,,space,1,0.3376,0,18,18,47,1,H,space,,
,,,,,,,,,,,,,,,,WRO92,001,,2024-02-22_08h52.32.784,Trial go no go,2020.2.10,MacIntel,60,IwAR2dq6wCE_KoPa_GJJmT51JHAUWGSE8gVmZBCK6vI5dVoOeT6fo_PC25p5A,,,,,,,,,,,,,,,,1,,0,19,19,49,1,X,none,,
,,,,,,,,,,,,,,,,WRO92,001,,2024-02-22_08h52.32.784,Trial go no go,2020.2.10,MacIntel,60,IwAR2dq6wCE_KoPa_GJJmT51JHAUWGSE8gVmZBCK6vI5dVoOeT6fo_PC25p5A,,,,,,,,,,,,,,,space,1,0.3645,0,20,20,45,1,A,space,,
,,,,,,,,,,,,,,,,WRO92,001,,2024-02-22_08h52.32.784,Trial go no go,2020.2.10,MacIntel,60,IwAR2dq6wCE_KoPa_GJJmT51JHAUWGSE8gVmZBCK6vI5dVoOeT6fo_PC25p5A,,,,,,,,,,,,,,,space,1,0.4054,0,21,21,40,1,R,space,,
,,,,,,,,,,,,,,,,WRO92,001,,2024-02-22_08h52.32.784,Trial go no go,2020.2.10,MacIntel,60,IwAR2dq6wCE_KoPa_GJJmT51JHAUWGSE8gVmZBCK6vI5dVoOeT6fo_PC25p5A,,,,,,,,,,,,,,,space,1,0.3956,0,22,22,23,1,Y,space,,
,,,,,,,,,,,,,,,,WRO92,001,,2024-02-22_08h52.32.784,Trial go no go,2020.2.10,MacIntel,60,IwAR2dq6wCE_KoPa_GJJmT51JHAUWGSE8gVmZBCK6vI5dVoOeT6fo_PC25p5A,,,,,,,,,,,,,,,space,1,0.365,0,23,23,21,1,R,space,,
,,,,,,,,,,,,,,,,WRO92,001,,2024-02-22_08h52.32.784,Trial go no go,2020.2.10,MacIntel,60,IwAR2dq6wCE_KoPa_GJJmT51JHAUWGSE8gVmZBCK6vI5dVoOeT6fo_PC25p5A,,,,,,,,,,,,,,,space,1,0.3379,0,24,24,28,1,H,space,,
,,,,,,,,,,,,,,,,WRO92,001,,2024-02-22_08h52.32.784,Trial go no go,2020.2.10,MacIntel,60,IwAR2dq6wCE_KoPa_GJJmT51JHAUWGSE8gVmZBCK6vI5dVoOeT6fo_PC25p5A,,,,,,,,,,,,,,,space,1,0.3188,0,25,25,30,1,K,space,,
,,,,,,,,,,,,,,,,WRO92,001,,2024-02-22_08h52.32.784,Trial go no go,2020.2.10,MacIntel,60,IwAR2dq6wCE_KoPa_GJJmT51JHAUWGSE8gVmZBCK6vI5dVoOeT6fo_PC25p5A,,,,,,,,,,,,,,,space,1,0.3936,0,26,26,41,1,T,space,,
,,,,,,,,,,,,,,,,WRO92,001,,2024-02-22_08h52.32.784,Trial go no go,2020.2.10,MacIntel,60,IwAR2dq6wCE_KoPa_GJJmT51JHAUWGSE8gVmZBCK6vI5dVoOeT6fo_PC25p5A,,,,,,,,,,,,,,,space,1,0.3287,0,27,27,15,1,V,space,,
,,,,,,,,,,,,,,,,WRO92,001,,2024-02-22_08h52.32.784,Trial go no go,2020.2.10,MacIntel,60,IwAR2dq6wCE_KoPa_GJJmT51JHAUWGSE8gVmZBCK6vI5dVoOeT6fo_PC25p5A,,,,,,,,,,,,,,,,1,,0,28,28,19,1,X,none,,
,,,,,,,,,,,,,,,,WRO92,001,,2024-02-22_08h52.32.784,Trial go no go,2020.2.10,MacIntel,60,IwAR2dq6wCE_KoPa_GJJmT51JHAUWGSE8gVmZBCK6vI5dVoOeT6fo_PC25p5A,,,,,,,,,,,,,,,space,1,0.3674,0,29,29,31,1,L,space,,
,,,,,,,,,,,,,,,,WRO92,001,,2024-02-22_08h52.32.784,Trial go no go,2020.2.10,MacIntel,60,IwAR2dq6wCE_KoPa_GJJmT51JHAUWGSE8gVmZBCK6vI5dVoOeT6fo_PC25p5A,,,,,,,,,,,,,,,space,1,0.3973,0,30,30,8,1,F,space,,
,,,,,,,,,,,,,,,,WRO92,001,,2024-02-22_08h52.32.784,Trial go no go,2020.2.10,MacIntel,60,IwAR2dq6wCE_KoPa_GJJmT51JHAUWGSE8gVmZBCK6vI5dVoOeT6fo_PC25p5A,,,,,,,,,,,,,,,space,1,0.3936,0,31,31,36,1,M,space,,
,,,,,,,,,,,,,,,,WRO92,001,,2024-02-22_08h52.32.784,Trial go no go,2020.2.10,MacIntel,60,IwAR2dq6wCE_KoPa_GJJmT51JHAUWGSE8gVmZBCK6vI5dVoOeT6fo_PC25p5A,,,,,,,,,,,,,,,space,1,0.3693,0,32,32,11,1,K,space,,
,,,,,,,,,,,,,,,,WRO92,001,,2024-02-22_08h52.32.784,Trial go no go,2020.2.10,MacIntel,60,IwAR2dq6wCE_KoPa_GJJmT51JHAUWGSE8gVmZBCK6vI5dVoOeT6fo_PC25p5A,,,,,,,,,,,,,,,space,1,0.3393,0,33,33,33,1,V,space,,
,,,,,,,,,,,,,,,,WRO92,001,,2024-02-22_08h52.32.784,Trial go no go,2020.2.10,MacIntel,60,IwAR2dq6wCE_KoPa_GJJmT51JHAUWGSE8gVmZBCK6vI5dVoOeT6fo_PC25p5A,,,,,,,,,,,,,,,space,1,0.3962,0,34,34,43,1,I,space,,
,,,,,,,,,,,,,,,,WRO92,001,,2024-02-22_08h52.32.784,Trial go no go,2020.2.10,MacIntel,60,IwAR2dq6wCE_KoPa_GJJmT51JHAUWGSE8gVmZBCK6vI5dVoOeT6fo_PC25p5A,,,,,,,,,,,,,,,space,0,0.3509,0,35,35,9,1,X,none,,
,,,,,,,,,,,,,,,,WRO92,001,,2024-02-22_08h52.32.784,Trial go no go,2020.2.10,MacIntel,60,IwAR2dq6wCE_KoPa_GJJmT51JHAUWGSE8gVmZBCK6vI5dVoOeT6fo_PC25p5A,,,,,,,,,,,,,,,,1,,0,36,36,4,1,X,none,,
,,,,,,,,,,,,,,,,WRO92,001,,2024-02-22_08h52.32.784,Trial go no go,2020.2.10,MacIntel,60,IwAR2dq6wCE_KoPa_GJJmT51JHAUWGSE8gVmZBCK6vI5dVoOeT6fo_PC25p5A,,,,,,,,,,,,,,,space,1,0.3955,0,37,37,35,1,N,space,,
,,,,,,,,,,,,,,,,WRO92,001,,2024-02-22_08h52.32.784,Trial go no go,2020.2.10,MacIntel,60,IwAR2dq6wCE_KoPa_GJJmT51JHAUWGSE8gVmZBCK6vI5dVoOeT6fo_PC25p5A,,,,,,,,,,,,,,,space,1,0.3284,0,38,38,12,1,L,space,,
,,,,,,,,,,,,,,,,WRO92,001,,2024-02-22_08h52.32.784,Trial go no go,2020.2.10,MacIntel,60,IwAR2dq6wCE_KoPa_GJJmT51JHAUWGSE8gVmZBCK6vI5dVoOeT6fo_PC25p5A,,,,,,,,,,,,,,,space,1,0.3704,0,39,39,27,1,F,space,,
,,,,,,,,,,,,,,,,WRO92,001,,2024-02-22_08h52.32.784,Trial go no go,2020.2.10,MacIntel,60,IwAR2dq6wCE_KoPa_GJJmT51JHAUWGSE8gVmZBCK6vI5dVoOeT6fo_PC25p5A,,,,,,,,,,,,,,,,1,,0,40,40,14,1,X,none,,
,,,,,,,,,,,,,,,,WRO92,001,,2024-02-22_08h52.32.784,Trial go no go,2020.2.10,MacIntel,60,IwAR2dq6wCE_KoPa_GJJmT51JHAUWGSE8gVmZBCK6vI5dVoOeT6fo_PC25p5A,,,,,,,,,,,,,,,space,1,0.3758,0,41,41,20,1,E,space,,
,,,,,,,,,,,,,,,,WRO92,001,,2024-02-22_08h52.32.784,Trial go no go,2020.2.10,MacIntel,60,IwAR2dq6wCE_KoPa_GJJmT51JHAUWGSE8gVmZBCK6vI5dVoOeT6fo_PC25p5A,,,,,,,,,,,,,,,,1,,0,42,42,39,1,X,none,,
,,,,,,,,,,,,,,,,WRO92,001,,2024-02-22_08h52.32.784,Trial go no go,2020.2.10,MacIntel,60,IwAR2dq6wCE_KoPa_GJJmT51JHAUWGSE8gVmZBCK6vI5dVoOeT6fo_PC25p5A,,,,,,,,,,,,,,,space,1,0.3724,0,43,43,16,1,N,space,,
,,,,,,,,,,,,,,,,WRO92,001,,2024-02-22_08h52.32.784,Trial go no go,2020.2.10,MacIntel,60,IwAR2dq6wCE_KoPa_GJJmT51JHAUWGSE8gVmZBCK6vI5dVoOeT6fo_PC25p5A,,,,,,,,,,,,,,,space,1,0.391,0,44,44,3,1,T,space,,
,,,,,,,,,,,,,,,,WRO92,001,,2024-02-22_08h52.32.784,Trial go no go,2020.2.10,MacIntel,60,IwAR2dq6wCE_KoPa_GJJmT51JHAUWGSE8gVmZBCK6vI5dVoOeT6fo_PC25p5A,,,,,,,,,,,,,,,space,1,0.3827,0,45,45,25,1,I,space,,
,,,,,,,,,,,,,,,,WRO92,001,,2024-02-22_08h52.32.784,Trial go no go,2020.2.10,MacIntel,60,IwAR2dq6wCE_KoPa_GJJmT51JHAUWGSE8gVmZBCK6vI5dVoOeT6fo_PC25p5A,,,,,,,,,,,,,,,space,1,0.3984,0,46,46,38,1,E,space,,
,,,,,,,,,,,,,,,,WRO92,001,,2024-02-22_08h52.32.784,Trial go no go,2020.2.10,MacIntel,60,IwAR2dq6wCE_KoPa_GJJmT51JHAUWGSE8gVmZBCK6vI5dVoOeT6fo_PC25p5A,,,,,,,,,,,,,,,space,1,0.3433,0,47,47,17,1,M,space,,
,,,,,,,,,,,,,,,,WRO92,001,,2024-02-22_08h52.32.784,Trial go no go,2020.2.10,MacIntel,60,IwAR2dq6wCE_KoPa_GJJmT51JHAUWGSE8gVmZBCK6vI5dVoOeT6fo_PC25p5A,,,,,,,,,,,,,,,,1,,0,48,48,34,1,X,none,,
,,,,,,,,,,,,,,,,WRO92,001,,2024-02-22_08h52.32.784,Trial go no go,2020.2.10,MacIntel,60,IwAR2dq6wCE_KoPa_GJJmT51JHAUWGSE8gVmZBCK6vI5dVoOeT6fo_PC25p5A,,,,,,,,,,,,,,,,1,,0,49,49,24,1,X,none,,
,,,,,,,,,,,,,,,,WRO92,001,,2024-02-22_08h52.32.784,Trial go no go,2020.2.10,MacIntel,60,IwAR2dq6wCE_KoPa_GJJmT51JHAUWGSE8gVmZBCK6vI5dVoOeT6fo_PC25p5A,,,,,,,,,,,,,,,,,,,,,,,,,space,10.0707
