resp_Welcome.keys,resp_Welcome.rt,resp_Instr_Intro.keys,resp_Instr_Intro.rt,resp_Instr_Prac1.keys,resp_Instr_Prac1.rt,resp_trial_Prac1.keys,resp_trial_Prac1.corr,resp_trial_Prac1.rt,prac_trials.thisRepN,prac_trials.thisTrialN,prac_trials.thisN,prac_trials.thisIndex,prac_trials.ran,stimulus_prac1,corrAns_prac1,participant,session,indywidualny kod,date,expName,psychopyVersion,OS,frameRate,resp_Instr_Test1.keys,resp_Instr_Test1.rt,resp_trial_Test1.keys,resp_trial_Test1.corr,test1trial.thisRepN,test1trial.thisTrialN,test1trial.thisN,test1trial.thisIndex,test1trial.ran,stimulus_test1,corrAns_test1,resp_trial_Test1.rt,resp_Instr_Test2.keys,resp_Instr_Test2.rt,key_resp_Test2.keys,key_resp_Test2.corr,key_resp_Test2.rt,test2trial.thisRepN,test2trial.thisTrialN,test2trial.thisN,test2trial.thisIndex,test2trial.ran,stimulus_test2,corrAns_test2,resp_theEnd.keys,resp_theEnd.rt
space,20.504,space,13.476,space,6.571,space,1,0.541,0,0,0,3,1,X,space,WWA131,001,WWA131,2024-02-14_12h05.18.141,Trial go no go,2020.2.10,MacIntel,60,,,,,,,,,,,,,,,,,,,,,,,,,,
,,,,,,space,1,0.527,0,1,1,13,1,X,space,WWA131,001,WWA131,2024-02-14_12h05.18.141,Trial go no go,2020.2.10,MacIntel,60,,,,,,,,,,,,,,,,,,,,,,,,,,
,,,,,,space,1,0.451,0,2,2,1,1,X,space,WWA131,001,WWA131,2024-02-14_12h05.18.141,Trial go no go,2020.2.10,MacIntel,60,,,,,,,,,,,,,,,,,,,,,,,,,,
,,,,,,space,1,0.352,0,3,3,12,1,X,space,WWA131,001,WWA131,2024-02-14_12h05.18.141,Trial go no go,2020.2.10,MacIntel,60,,,,,,,,,,,,,,,,,,,,,,,,,,
,,,,,,space,1,0.393,0,4,4,2,1,X,space,WWA131,001,WWA131,2024-02-14_12h05.18.141,Trial go no go,2020.2.10,MacIntel,60,,,,,,,,,,,,,,,,,,,,,,,,,,
,,,,,,space,1,0.367,0,5,5,5,1,X,space,WWA131,001,WWA131,2024-02-14_12h05.18.141,Trial go no go,2020.2.10,MacIntel,60,,,,,,,,,,,,,,,,,,,,,,,,,,
,,,,,,space,1,0.377,0,6,6,8,1,X,space,WWA131,001,WWA131,2024-02-14_12h05.18.141,Trial go no go,2020.2.10,MacIntel,60,,,,,,,,,,,,,,,,,,,,,,,,,,
,,,,,,,1,,0,7,7,14,1,K,none,WWA131,001,WWA131,2024-02-14_12h05.18.141,Trial go no go,2020.2.10,MacIntel,60,,,,,,,,,,,,,,,,,,,,,,,,,,
,,,,,,,1,,0,8,8,9,1,V,none,WWA131,001,WWA131,2024-02-14_12h05.18.141,Trial go no go,2020.2.10,MacIntel,60,,,,,,,,,,,,,,,,,,,,,,,,,,
,,,,,,,1,,0,9,9,4,1,W,none,WWA131,001,WWA131,2024-02-14_12h05.18.141,Trial go no go,2020.2.10,MacIntel,60,,,,,,,,,,,,,,,,,,,,,,,,,,
,,,,,,space,1,0.389,0,10,10,0,1,X,space,WWA131,001,WWA131,2024-02-14_12h05.18.141,Trial go no go,2020.2.10,MacIntel,60,,,,,,,,,,,,,,,,,,,,,,,,,,
,,,,,,space,1,0.492,0,11,11,11,1,X,space,WWA131,001,WWA131,2024-02-14_12h05.18.141,Trial go no go,2020.2.10,MacIntel,60,,,,,,,,,,,,,,,,,,,,,,,,,,
,,,,,,space,1,0.367,0,12,12,6,1,X,space,WWA131,001,WWA131,2024-02-14_12h05.18.141,Trial go no go,2020.2.10,MacIntel,60,,,,,,,,,,,,,,,,,,,,,,,,,,
,,,,,,space,1,0.485,0,13,13,10,1,X,space,WWA131,001,WWA131,2024-02-14_12h05.18.141,Trial go no go,2020.2.10,MacIntel,60,,,,,,,,,,,,,,,,,,,,,,,,,,
,,,,,,space,1,0.401,0,14,14,7,1,X,space,WWA131,001,WWA131,2024-02-14_12h05.18.141,Trial go no go,2020.2.10,MacIntel,60,,,,,,,,,,,,,,,,,,,,,,,,,,
,,,,,,,,,,,,,,,,WWA131,001,WWA131,2024-02-14_12h05.18.141,Trial go no go,2020.2.10,MacIntel,60,space,7.339,,0,0,0,0,18,1,X,space,,,,,,,,,,,,,,,
,,,,,,,,,,,,,,,,WWA131,001,WWA131,2024-02-14_12h05.18.141,Trial go no go,2020.2.10,MacIntel,60,,,space,1,0,1,1,0,1,X,space,0.427,,,,,,,,,,,,,,
,,,,,,,,,,,,,,,,WWA131,001,WWA131,2024-02-14_12h05.18.141,Trial go no go,2020.2.10,MacIntel,60,,,space,1,0,2,2,46,1,X,space,0.257,,,,,,,,,,,,,,
,,,,,,,,,,,,,,,,WWA131,001,WWA131,2024-02-14_12h05.18.141,Trial go no go,2020.2.10,MacIntel,60,,,space,1,0,3,3,15,1,X,space,0.303,,,,,,,,,,,,,,
,,,,,,,,,,,,,,,,WWA131,001,WWA131,2024-02-14_12h05.18.141,Trial go no go,2020.2.10,MacIntel,60,,,space,1,0,4,4,48,1,X,space,0.301,,,,,,,,,,,,,,
,,,,,,,,,,,,,,,,WWA131,001,WWA131,2024-02-14_12h05.18.141,Trial go no go,2020.2.10,MacIntel,60,,,space,1,0,5,5,40,1,X,space,0.278,,,,,,,,,,,,,,
,,,,,,,,,,,,,,,,WWA131,001,WWA131,2024-02-14_12h05.18.141,Trial go no go,2020.2.10,MacIntel,60,,,space,1,0,6,6,11,1,X,space,0.254,,,,,,,,,,,,,,
,,,,,,,,,,,,,,,,WWA131,001,WWA131,2024-02-14_12h05.18.141,Trial go no go,2020.2.10,MacIntel,60,,,space,1,0,7,7,25,1,X,space,0.31,,,,,,,,,,,,,,
,,,,,,,,,,,,,,,,WWA131,001,WWA131,2024-02-14_12h05.18.141,Trial go no go,2020.2.10,MacIntel,60,,,space,1,0,8,8,43,1,X,space,0.267,,,,,,,,,,,,,,
,,,,,,,,,,,,,,,,WWA131,001,WWA131,2024-02-14_12h05.18.141,Trial go no go,2020.2.10,MacIntel,60,,,space,1,0,9,9,13,1,X,space,0.286,,,,,,,,,,,,,,
,,,,,,,,,,,,,,,,WWA131,001,WWA131,2024-02-14_12h05.18.141,Trial go no go,2020.2.10,MacIntel,60,,,space,1,0,10,10,10,1,X,space,0.267,,,,,,,,,,,,,,
,,,,,,,,,,,,,,,,WWA131,001,WWA131,2024-02-14_12h05.18.141,Trial go no go,2020.2.10,MacIntel,60,,,space,0,0,11,11,19,1,K,none,0.27,,,,,,,,,,,,,,
,,,,,,,,,,,,,,,,WWA131,001,WWA131,2024-02-14_12h05.18.141,Trial go no go,2020.2.10,MacIntel,60,,,,1,0,12,12,4,1,V,none,,,,,,,,,,,,,,,
,,,,,,,,,,,,,,,,WWA131,001,WWA131,2024-02-14_12h05.18.141,Trial go no go,2020.2.10,MacIntel,60,,,space,1,0,13,13,31,1,X,space,0.312,,,,,,,,,,,,,,
,,,,,,,,,,,,,,,,WWA131,001,WWA131,2024-02-14_12h05.18.141,Trial go no go,2020.2.10,MacIntel,60,,,space,1,0,14,14,21,1,X,space,0.37,,,,,,,,,,,,,,
,,,,,,,,,,,,,,,,WWA131,001,WWA131,2024-02-14_12h05.18.141,Trial go no go,2020.2.10,MacIntel,60,,,space,1,0,15,15,3,1,X,space,0.401,,,,,,,,,,,,,,
,,,,,,,,,,,,,,,,WWA131,001,WWA131,2024-02-14_12h05.18.141,Trial go no go,2020.2.10,MacIntel,60,,,space,1,0,16,16,32,1,X,space,0.301,,,,,,,,,,,,,,
,,,,,,,,,,,,,,,,WWA131,001,WWA131,2024-02-14_12h05.18.141,Trial go no go,2020.2.10,MacIntel,60,,,space,1,0,17,17,12,1,X,space,0.319,,,,,,,,,,,,,,
,,,,,,,,,,,,,,,,WWA131,001,WWA131,2024-02-14_12h05.18.141,Trial go no go,2020.2.10,MacIntel,60,,,space,1,0,18,18,7,1,X,space,0.339,,,,,,,,,,,,,,
,,,,,,,,,,,,,,,,WWA131,001,WWA131,2024-02-14_12h05.18.141,Trial go no go,2020.2.10,MacIntel,60,,,space,0,0,19,19,9,1,W,none,0.289,,,,,,,,,,,,,,
,,,,,,,,,,,,,,,,WWA131,001,WWA131,2024-02-14_12h05.18.141,Trial go no go,2020.2.10,MacIntel,60,,,space,1,0,20,20,36,1,X,space,0.41,,,,,,,,,,,,,,
,,,,,,,,,,,,,,,,WWA131,001,WWA131,2024-02-14_12h05.18.141,Trial go no go,2020.2.10,MacIntel,60,,,space,1,0,21,21,16,1,X,space,0.551,,,,,,,,,,,,,,
,,,,,,,,,,,,,,,,WWA131,001,WWA131,2024-02-14_12h05.18.141,Trial go no go,2020.2.10,MacIntel,60,,,,1,0,22,22,14,1,Y,none,,,,,,,,,,,,,,,
,,,,,,,,,,,,,,,,WWA131,001,WWA131,2024-02-14_12h05.18.141,Trial go no go,2020.2.10,MacIntel,60,,,space,1,0,23,23,5,1,X,space,0.351,,,,,,,,,,,,,,
,,,,,,,,,,,,,,,,WWA131,001,WWA131,2024-02-14_12h05.18.141,Trial go no go,2020.2.10,MacIntel,60,,,space,1,0,24,24,42,1,X,space,0.356,,,,,,,,,,,,,,
,,,,,,,,,,,,,,,,WWA131,001,WWA131,2024-02-14_12h05.18.141,Trial go no go,2020.2.10,MacIntel,60,,,space,1,0,25,25,20,1,X,space,0.337,,,,,,,,,,,,,,
,,,,,,,,,,,,,,,,WWA131,001,WWA131,2024-02-14_12h05.18.141,Trial go no go,2020.2.10,MacIntel,60,,,,1,0,26,26,34,1,N,none,,,,,,,,,,,,,,,
,,,,,,,,,,,,,,,,WWA131,001,WWA131,2024-02-14_12h05.18.141,Trial go no go,2020.2.10,MacIntel,60,,,space,1,0,27,27,41,1,X,space,0.286,,,,,,,,,,,,,,
,,,,,,,,,,,,,,,,WWA131,001,WWA131,2024-02-14_12h05.18.141,Trial go no go,2020.2.10,MacIntel,60,,,,1,0,28,28,39,1,M,none,,,,,,,,,,,,,,,
,,,,,,,,,,,,,,,,WWA131,001,WWA131,2024-02-14_12h05.18.141,Trial go no go,2020.2.10,MacIntel,60,,,space,1,0,29,29,37,1,X,space,0.472,,,,,,,,,,,,,,
,,,,,,,,,,,,,,,,WWA131,001,WWA131,2024-02-14_12h05.18.141,Trial go no go,2020.2.10,MacIntel,60,,,space,1,0,30,30,23,1,X,space,0.45,,,,,,,,,,,,,,
,,,,,,,,,,,,,,,,WWA131,001,WWA131,2024-02-14_12h05.18.141,Trial go no go,2020.2.10,MacIntel,60,,,space,1,0,31,31,6,1,X,space,0.374,,,,,,,,,,,,,,
,,,,,,,,,,,,,,,,WWA131,001,WWA131,2024-02-14_12h05.18.141,Trial go no go,2020.2.10,MacIntel,60,,,space,1,0,32,32,47,1,X,space,0.351,,,,,,,,,,,,,,
,,,,,,,,,,,,,,,,WWA131,001,WWA131,2024-02-14_12h05.18.141,Trial go no go,2020.2.10,MacIntel,60,,,space,1,0,33,33,30,1,X,space,0.317,,,,,,,,,,,,,,
,,,,,,,,,,,,,,,,WWA131,001,WWA131,2024-02-14_12h05.18.141,Trial go no go,2020.2.10,MacIntel,60,,,space,1,0,34,34,38,1,X,space,0.301,,,,,,,,,,,,,,
,,,,,,,,,,,,,,,,WWA131,001,WWA131,2024-02-14_12h05.18.141,Trial go no go,2020.2.10,MacIntel,60,,,space,1,0,35,35,8,1,X,space,0.311,,,,,,,,,,,,,,
,,,,,,,,,,,,,,,,WWA131,001,WWA131,2024-02-14_12h05.18.141,Trial go no go,2020.2.10,MacIntel,60,,,space,1,0,36,36,33,1,X,space,0.287,,,,,,,,,,,,,,
,,,,,,,,,,,,,,,,WWA131,001,WWA131,2024-02-14_12h05.18.141,Trial go no go,2020.2.10,MacIntel,60,,,,1,0,37,37,44,1,F,none,,,,,,,,,,,,,,,
,,,,,,,,,,,,,,,,WWA131,001,WWA131,2024-02-14_12h05.18.141,Trial go no go,2020.2.10,MacIntel,60,,,space,1,0,38,38,1,1,X,space,0.284,,,,,,,,,,,,,,
,,,,,,,,,,,,,,,,WWA131,001,WWA131,2024-02-14_12h05.18.141,Trial go no go,2020.2.10,MacIntel,60,,,,1,0,39,39,24,1,H,none,,,,,,,,,,,,,,,
,,,,,,,,,,,,,,,,WWA131,001,WWA131,2024-02-14_12h05.18.141,Trial go no go,2020.2.10,MacIntel,60,,,,1,0,40,40,49,1,E,none,,,,,,,,,,,,,,,
,,,,,,,,,,,,,,,,WWA131,001,WWA131,2024-02-14_12h05.18.141,Trial go no go,2020.2.10,MacIntel,60,,,space,1,0,41,41,2,1,X,space,0.281,,,,,,,,,,,,,,
,,,,,,,,,,,,,,,,WWA131,001,WWA131,2024-02-14_12h05.18.141,Trial go no go,2020.2.10,MacIntel,60,,,space,1,0,42,42,27,1,X,space,0.306,,,,,,,,,,,,,,
,,,,,,,,,,,,,,,,WWA131,001,WWA131,2024-02-14_12h05.18.141,Trial go no go,2020.2.10,MacIntel,60,,,space,1,0,43,43,26,1,X,space,0.291,,,,,,,,,,,,,,
,,,,,,,,,,,,,,,,WWA131,001,WWA131,2024-02-14_12h05.18.141,Trial go no go,2020.2.10,MacIntel,60,,,space,1,0,44,44,45,1,X,space,0.284,,,,,,,,,,,,,,
,,,,,,,,,,,,,,,,WWA131,001,WWA131,2024-02-14_12h05.18.141,Trial go no go,2020.2.10,MacIntel,60,,,space,1,0,45,45,35,1,X,space,0.278,,,,,,,,,,,,,,
,,,,,,,,,,,,,,,,WWA131,001,WWA131,2024-02-14_12h05.18.141,Trial go no go,2020.2.10,MacIntel,60,,,space,1,0,46,46,22,1,X,space,0.272,,,,,,,,,,,,,,
,,,,,,,,,,,,,,,,WWA131,001,WWA131,2024-02-14_12h05.18.141,Trial go no go,2020.2.10,MacIntel,60,,,,1,0,47,47,29,1,T,none,,,,,,,,,,,,,,,
,,,,,,,,,,,,,,,,WWA131,001,WWA131,2024-02-14_12h05.18.141,Trial go no go,2020.2.10,MacIntel,60,,,space,1,0,48,48,28,1,X,space,0.301,,,,,,,,,,,,,,
,,,,,,,,,,,,,,,,WWA131,001,WWA131,2024-02-14_12h05.18.141,Trial go no go,2020.2.10,MacIntel,60,,,space,1,0,49,49,17,1,X,space,0.334,,,,,,,,,,,,,,
,,,,,,,,,,,,,,,,WWA131,001,WWA131,2024-02-14_12h05.18.141,Trial go no go,2020.2.10,MacIntel,60,,,,,,,,,,,,,z,21.187,space,1,0.745,0,0,0,3,1,T,space,,
,,,,,,,,,,,,,,,,WWA131,001,WWA131,2024-02-14_12h05.18.141,Trial go no go,2020.2.10,MacIntel,60,,,,,,,,,,,,,,,space,0,0.355,0,1,1,24,1,X,none,,
,,,,,,,,,,,,,,,,WWA131,001,WWA131,2024-02-14_12h05.18.141,Trial go no go,2020.2.10,MacIntel,60,,,,,,,,,,,,,,,space,1,0.345,0,2,2,31,1,L,space,,
,,,,,,,,,,,,,,,,WWA131,001,WWA131,2024-02-14_12h05.18.141,Trial go no go,2020.2.10,MacIntel,60,,,,,,,,,,,,,,,space,1,0.39,0,3,3,21,1,R,space,,
,,,,,,,,,,,,,,,,WWA131,001,WWA131,2024-02-14_12h05.18.141,Trial go no go,2020.2.10,MacIntel,60,,,,,,,,,,,,,,,space,1,0.312,0,4,4,30,1,K,space,,
,,,,,,,,,,,,,,,,WWA131,001,WWA131,2024-02-14_12h05.18.141,Trial go no go,2020.2.10,MacIntel,60,,,,,,,,,,,,,,,space,1,0.34,0,5,5,7,1,A,space,,
,,,,,,,,,,,,,,,,WWA131,001,WWA131,2024-02-14_12h05.18.141,Trial go no go,2020.2.10,MacIntel,60,,,,,,,,,,,,,,,space,1,0.417,0,6,6,42,1,Y,space,,
,,,,,,,,,,,,,,,,WWA131,001,WWA131,2024-02-14_12h05.18.141,Trial go no go,2020.2.10,MacIntel,60,,,,,,,,,,,,,,,,1,,0,7,7,9,1,X,none,,
,,,,,,,,,,,,,,,,WWA131,001,WWA131,2024-02-14_12h05.18.141,Trial go no go,2020.2.10,MacIntel,60,,,,,,,,,,,,,,,space,0,0.276,0,8,8,19,1,X,none,,
,,,,,,,,,,,,,,,,WWA131,001,WWA131,2024-02-14_12h05.18.141,Trial go no go,2020.2.10,MacIntel,60,,,,,,,,,,,,,,,space,1,0.379,0,9,9,17,1,M,space,,
,,,,,,,,,,,,,,,,WWA131,001,WWA131,2024-02-14_12h05.18.141,Trial go no go,2020.2.10,MacIntel,60,,,,,,,,,,,,,,,space,1,0.395,0,10,10,37,1,W,space,,
,,,,,,,,,,,,,,,,WWA131,001,WWA131,2024-02-14_12h05.18.141,Trial go no go,2020.2.10,MacIntel,60,,,,,,,,,,,,,,,,1,,0,11,11,44,1,X,none,,
,,,,,,,,,,,,,,,,WWA131,001,WWA131,2024-02-14_12h05.18.141,Trial go no go,2020.2.10,MacIntel,60,,,,,,,,,,,,,,,space,1,0.313,0,12,12,45,1,A,space,,
,,,,,,,,,,,,,,,,WWA131,001,WWA131,2024-02-14_12h05.18.141,Trial go no go,2020.2.10,MacIntel,60,,,,,,,,,,,,,,,space,1,0.306,0,13,13,1,1,E,space,,
,,,,,,,,,,,,,,,,WWA131,001,WWA131,2024-02-14_12h05.18.141,Trial go no go,2020.2.10,MacIntel,60,,,,,,,,,,,,,,,space,1,0.404,0,14,14,41,1,T,space,,
,,,,,,,,,,,,,,,,WWA131,001,WWA131,2024-02-14_12h05.18.141,Trial go no go,2020.2.10,MacIntel,60,,,,,,,,,,,,,,,,1,,0,15,15,39,1,X,none,,
,,,,,,,,,,,,,,,,WWA131,001,WWA131,2024-02-14_12h05.18.141,Trial go no go,2020.2.10,MacIntel,60,,,,,,,,,,,,,,,space,1,0.311,0,16,16,23,1,Y,space,,
,,,,,,,,,,,,,,,,WWA131,001,WWA131,2024-02-14_12h05.18.141,Trial go no go,2020.2.10,MacIntel,60,,,,,,,,,,,,,,,space,1,0.379,0,17,17,46,1,F,space,,
,,,,,,,,,,,,,,,,WWA131,001,WWA131,2024-02-14_12h05.18.141,Trial go no go,2020.2.10,MacIntel,60,,,,,,,,,,,,,,,space,1,0.348,0,18,18,22,1,T,space,,
,,,,,,,,,,,,,,,,WWA131,001,WWA131,2024-02-14_12h05.18.141,Trial go no go,2020.2.10,MacIntel,60,,,,,,,,,,,,,,,space,1,0.421,0,19,19,36,1,M,space,,
,,,,,,,,,,,,,,,,WWA131,001,WWA131,2024-02-14_12h05.18.141,Trial go no go,2020.2.10,MacIntel,60,,,,,,,,,,,,,,,space,1,0.406,0,20,20,11,1,K,space,,
,,,,,,,,,,,,,,,,WWA131,001,WWA131,2024-02-14_12h05.18.141,Trial go no go,2020.2.10,MacIntel,60,,,,,,,,,,,,,,,space,1,0.307,0,21,21,28,1,H,space,,
,,,,,,,,,,,,,,,,WWA131,001,WWA131,2024-02-14_12h05.18.141,Trial go no go,2020.2.10,MacIntel,60,,,,,,,,,,,,,,,space,1,0.3,0,22,22,10,1,H,space,,
,,,,,,,,,,,,,,,,WWA131,001,WWA131,2024-02-14_12h05.18.141,Trial go no go,2020.2.10,MacIntel,60,,,,,,,,,,,,,,,space,0,0.303,0,23,23,34,1,X,none,,
,,,,,,,,,,,,,,,,WWA131,001,WWA131,2024-02-14_12h05.18.141,Trial go no go,2020.2.10,MacIntel,60,,,,,,,,,,,,,,,space,0,0.321,0,24,24,49,1,X,none,,
,,,,,,,,,,,,,,,,WWA131,001,WWA131,2024-02-14_12h05.18.141,Trial go no go,2020.2.10,MacIntel,60,,,,,,,,,,,,,,,space,1,0.379,0,25,25,15,1,V,space,,
,,,,,,,,,,,,,,,,WWA131,001,WWA131,2024-02-14_12h05.18.141,Trial go no go,2020.2.10,MacIntel,60,,,,,,,,,,,,,,,space,1,0.361,0,26,26,0,1,W,space,,
,,,,,,,,,,,,,,,,WWA131,001,WWA131,2024-02-14_12h05.18.141,Trial go no go,2020.2.10,MacIntel,60,,,,,,,,,,,,,,,space,0,0.321,0,27,27,29,1,X,none,,
,,,,,,,,,,,,,,,,WWA131,001,WWA131,2024-02-14_12h05.18.141,Trial go no go,2020.2.10,MacIntel,60,,,,,,,,,,,,,,,,0,,0,28,28,32,1,Z,space,,
,,,,,,,,,,,,,,,,WWA131,001,WWA131,2024-02-14_12h05.18.141,Trial go no go,2020.2.10,MacIntel,60,,,,,,,,,,,,,,,space,1,0.265,0,29,29,38,1,E,space,,
,,,,,,,,,,,,,,,,WWA131,001,WWA131,2024-02-14_12h05.18.141,Trial go no go,2020.2.10,MacIntel,60,,,,,,,,,,,,,,,space,1,0.351,0,30,30,26,1,A,space,,
,,,,,,,,,,,,,,,,WWA131,001,WWA131,2024-02-14_12h05.18.141,Trial go no go,2020.2.10,MacIntel,60,,,,,,,,,,,,,,,space,1,0.349,0,31,31,8,1,F,space,,
,,,,,,,,,,,,,,,,WWA131,001,WWA131,2024-02-14_12h05.18.141,Trial go no go,2020.2.10,MacIntel,60,,,,,,,,,,,,,,,space,1,0.302,0,32,32,27,1,F,space,,
,,,,,,,,,,,,,,,,WWA131,001,WWA131,2024-02-14_12h05.18.141,Trial go no go,2020.2.10,MacIntel,60,,,,,,,,,,,,,,,space,1,0.358,0,33,33,6,1,I,space,,
,,,,,,,,,,,,,,,,WWA131,001,WWA131,2024-02-14_12h05.18.141,Trial go no go,2020.2.10,MacIntel,60,,,,,,,,,,,,,,,space,1,0.306,0,34,34,35,1,N,space,,
,,,,,,,,,,,,,,,,WWA131,001,WWA131,2024-02-14_12h05.18.141,Trial go no go,2020.2.10,MacIntel,60,,,,,,,,,,,,,,,space,1,0.303,0,35,35,48,1,K,space,,
,,,,,,,,,,,,,,,,WWA131,001,WWA131,2024-02-14_12h05.18.141,Trial go no go,2020.2.10,MacIntel,60,,,,,,,,,,,,,,,space,1,0.312,0,36,36,47,1,H,space,,
,,,,,,,,,,,,,,,,WWA131,001,WWA131,2024-02-14_12h05.18.141,Trial go no go,2020.2.10,MacIntel,60,,,,,,,,,,,,,,,space,1,0.341,0,37,37,12,1,L,space,,
,,,,,,,,,,,,,,,,WWA131,001,WWA131,2024-02-14_12h05.18.141,Trial go no go,2020.2.10,MacIntel,60,,,,,,,,,,,,,,,space,1,0.303,0,38,38,20,1,E,space,,
,,,,,,,,,,,,,,,,WWA131,001,WWA131,2024-02-14_12h05.18.141,Trial go no go,2020.2.10,MacIntel,60,,,,,,,,,,,,,,,space,1,0.336,0,39,39,40,1,R,space,,
,,,,,,,,,,,,,,,,WWA131,001,WWA131,2024-02-14_12h05.18.141,Trial go no go,2020.2.10,MacIntel,60,,,,,,,,,,,,,,,space,1,0.337,0,40,40,2,1,R,space,,
,,,,,,,,,,,,,,,,WWA131,001,WWA131,2024-02-14_12h05.18.141,Trial go no go,2020.2.10,MacIntel,60,,,,,,,,,,,,,,,space,1,0.314,0,41,41,43,1,I,space,,
,,,,,,,,,,,,,,,,WWA131,001,WWA131,2024-02-14_12h05.18.141,Trial go no go,2020.2.10,MacIntel,60,,,,,,,,,,,,,,,,1,,0,42,42,14,1,X,none,,
,,,,,,,,,,,,,,,,WWA131,001,WWA131,2024-02-14_12h05.18.141,Trial go no go,2020.2.10,MacIntel,60,,,,,,,,,,,,,,,space,1,0.353,0,43,43,16,1,N,space,,
,,,,,,,,,,,,,,,,WWA131,001,WWA131,2024-02-14_12h05.18.141,Trial go no go,2020.2.10,MacIntel,60,,,,,,,,,,,,,,,,1,,0,44,44,4,1,X,none,,
,,,,,,,,,,,,,,,,WWA131,001,WWA131,2024-02-14_12h05.18.141,Trial go no go,2020.2.10,MacIntel,60,,,,,,,,,,,,,,,space,1,0.268,0,45,45,25,1,I,space,,
,,,,,,,,,,,,,,,,WWA131,001,WWA131,2024-02-14_12h05.18.141,Trial go no go,2020.2.10,MacIntel,60,,,,,,,,,,,,,,,space,1,0.298,0,46,46,5,1,Y,space,,
,,,,,,,,,,,,,,,,WWA131,001,WWA131,2024-02-14_12h05.18.141,Trial go no go,2020.2.10,MacIntel,60,,,,,,,,,,,,,,,space,1,0.303,0,47,47,13,1,Z,space,,
,,,,,,,,,,,,,,,,WWA131,001,WWA131,2024-02-14_12h05.18.141,Trial go no go,2020.2.10,MacIntel,60,,,,,,,,,,,,,,,space,1,0.313,0,48,48,33,1,V,space,,
,,,,,,,,,,,,,,,,WWA131,001,WWA131,2024-02-14_12h05.18.141,Trial go no go,2020.2.10,MacIntel,60,,,,,,,,,,,,,,,space,1,0.355,0,49,49,18,1,W,space,,
,,,,,,,,,,,,,,,,WWA131,001,WWA131,2024-02-14_12h05.18.141,Trial go no go,2020.2.10,MacIntel,60,,,,,,,,,,,,,,,,,,,,,,,,,space,10.287
