resp_Welcome.keys,resp_Welcome.rt,resp_Instr_Intro.keys,resp_Instr_Intro.rt,resp_Instr_Prac1.keys,resp_Instr_Prac1.rt,resp_trial_Prac1.keys,resp_trial_Prac1.corr,prac_trials.thisRepN,prac_trials.thisTrialN,prac_trials.thisN,prac_trials.thisIndex,prac_trials.ran,stimulus_prac1,corrAns_prac1,participant,session,indywidualny kod,date,expName,psychopyVersion,OS,frameRate,resp_trial_Prac1.rt,resp_Instr_Test1.keys,resp_Instr_Test1.rt,resp_trial_Test1.keys,resp_trial_Test1.corr,test1trial.thisRepN,test1trial.thisTrialN,test1trial.thisN,test1trial.thisIndex,test1trial.ran,stimulus_test1,corrAns_test1,resp_trial_Test1.rt,resp_Instr_Test2.keys,resp_Instr_Test2.rt,key_resp_Test2.keys,key_resp_Test2.corr,test2trial.thisRepN,test2trial.thisTrialN,test2trial.thisN,test2trial.thisIndex,test2trial.ran,stimulus_test2,corrAns_test2,key_resp_Test2.rt,resp_theEnd.keys,resp_theEnd.rt
space,12.3824,space,21.3691,space,13.4844,,1,0,0,0,9,1,V,none,WWA100,001,WWA100,2023-12-13_10h23.52.996,Trial go no go,2020.2.10,MacIntel,60,,,,,,,,,,,,,,,,,,,,,,,,,,,
,,,,,,space,1,0,1,1,8,1,X,space,WWA100,001,WWA100,2023-12-13_10h23.52.996,Trial go no go,2020.2.10,MacIntel,60,0.5792,,,,,,,,,,,,,,,,,,,,,,,,,,
,,,,,,space,1,0,2,2,2,1,X,space,WWA100,001,WWA100,2023-12-13_10h23.52.996,Trial go no go,2020.2.10,MacIntel,60,0.5529,,,,,,,,,,,,,,,,,,,,,,,,,,
,,,,,,space,1,0,3,3,1,1,X,space,WWA100,001,WWA100,2023-12-13_10h23.52.996,Trial go no go,2020.2.10,MacIntel,60,0.506,,,,,,,,,,,,,,,,,,,,,,,,,,
,,,,,,space,1,0,4,4,12,1,X,space,WWA100,001,WWA100,2023-12-13_10h23.52.996,Trial go no go,2020.2.10,MacIntel,60,0.5794,,,,,,,,,,,,,,,,,,,,,,,,,,
,,,,,,,1,0,5,5,4,1,W,none,WWA100,001,WWA100,2023-12-13_10h23.52.996,Trial go no go,2020.2.10,MacIntel,60,,,,,,,,,,,,,,,,,,,,,,,,,,,
,,,,,,space,1,0,6,6,5,1,X,space,WWA100,001,WWA100,2023-12-13_10h23.52.996,Trial go no go,2020.2.10,MacIntel,60,0.5334,,,,,,,,,,,,,,,,,,,,,,,,,,
,,,,,,space,1,0,7,7,10,1,X,space,WWA100,001,WWA100,2023-12-13_10h23.52.996,Trial go no go,2020.2.10,MacIntel,60,0.5179,,,,,,,,,,,,,,,,,,,,,,,,,,
,,,,,,space,1,0,8,8,0,1,X,space,WWA100,001,WWA100,2023-12-13_10h23.52.996,Trial go no go,2020.2.10,MacIntel,60,0.5186,,,,,,,,,,,,,,,,,,,,,,,,,,
,,,,,,space,1,0,9,9,11,1,X,space,WWA100,001,WWA100,2023-12-13_10h23.52.996,Trial go no go,2020.2.10,MacIntel,60,0.4509,,,,,,,,,,,,,,,,,,,,,,,,,,
,,,,,,space,1,0,10,10,6,1,X,space,WWA100,001,WWA100,2023-12-13_10h23.52.996,Trial go no go,2020.2.10,MacIntel,60,0.5031,,,,,,,,,,,,,,,,,,,,,,,,,,
,,,,,,,1,0,11,11,14,1,K,none,WWA100,001,WWA100,2023-12-13_10h23.52.996,Trial go no go,2020.2.10,MacIntel,60,,,,,,,,,,,,,,,,,,,,,,,,,,,
,,,,,,space,1,0,12,12,3,1,X,space,WWA100,001,WWA100,2023-12-13_10h23.52.996,Trial go no go,2020.2.10,MacIntel,60,0.5268,,,,,,,,,,,,,,,,,,,,,,,,,,
,,,,,,space,1,0,13,13,7,1,X,space,WWA100,001,WWA100,2023-12-13_10h23.52.996,Trial go no go,2020.2.10,MacIntel,60,0.5032,,,,,,,,,,,,,,,,,,,,,,,,,,
,,,,,,space,1,0,14,14,13,1,X,space,WWA100,001,WWA100,2023-12-13_10h23.52.996,Trial go no go,2020.2.10,MacIntel,60,0.7536,,,,,,,,,,,,,,,,,,,,,,,,,,
,,,,,,,,,,,,,,,WWA100,001,WWA100,2023-12-13_10h23.52.996,Trial go no go,2020.2.10,MacIntel,60,,space,8.2541,,0,0,0,0,1,1,X,space,,,,,,,,,,,,,,,
,,,,,,,,,,,,,,,WWA100,001,WWA100,2023-12-13_10h23.52.996,Trial go no go,2020.2.10,MacIntel,60,,,,space,1,0,1,1,22,1,X,space,0.3577,,,,,,,,,,,,,,
,,,,,,,,,,,,,,,WWA100,001,WWA100,2023-12-13_10h23.52.996,Trial go no go,2020.2.10,MacIntel,60,,,,space,0,0,2,2,24,1,H,none,0.2683,,,,,,,,,,,,,,
,,,,,,,,,,,,,,,WWA100,001,WWA100,2023-12-13_10h23.52.996,Trial go no go,2020.2.10,MacIntel,60,,,,space,1,0,3,3,28,1,X,space,0.4507,,,,,,,,,,,,,,
,,,,,,,,,,,,,,,WWA100,001,WWA100,2023-12-13_10h23.52.996,Trial go no go,2020.2.10,MacIntel,60,,,,,1,0,4,4,39,1,M,none,,,,,,,,,,,,,,,
,,,,,,,,,,,,,,,WWA100,001,WWA100,2023-12-13_10h23.52.996,Trial go no go,2020.2.10,MacIntel,60,,,,space,1,0,5,5,26,1,X,space,0.3332,,,,,,,,,,,,,,
,,,,,,,,,,,,,,,WWA100,001,WWA100,2023-12-13_10h23.52.996,Trial go no go,2020.2.10,MacIntel,60,,,,space,1,0,6,6,31,1,X,space,0.4861,,,,,,,,,,,,,,
,,,,,,,,,,,,,,,WWA100,001,WWA100,2023-12-13_10h23.52.996,Trial go no go,2020.2.10,MacIntel,60,,,,space,1,0,7,7,36,1,X,space,0.3229,,,,,,,,,,,,,,
,,,,,,,,,,,,,,,WWA100,001,WWA100,2023-12-13_10h23.52.996,Trial go no go,2020.2.10,MacIntel,60,,,,space,1,0,8,8,8,1,X,space,0.3444,,,,,,,,,,,,,,
,,,,,,,,,,,,,,,WWA100,001,WWA100,2023-12-13_10h23.52.996,Trial go no go,2020.2.10,MacIntel,60,,,,space,1,0,9,9,20,1,X,space,0.3518,,,,,,,,,,,,,,
,,,,,,,,,,,,,,,WWA100,001,WWA100,2023-12-13_10h23.52.996,Trial go no go,2020.2.10,MacIntel,60,,,,space,1,0,10,10,41,1,X,space,0.3547,,,,,,,,,,,,,,
,,,,,,,,,,,,,,,WWA100,001,WWA100,2023-12-13_10h23.52.996,Trial go no go,2020.2.10,MacIntel,60,,,,space,1,0,11,11,0,1,X,space,0.3326,,,,,,,,,,,,,,
,,,,,,,,,,,,,,,WWA100,001,WWA100,2023-12-13_10h23.52.996,Trial go no go,2020.2.10,MacIntel,60,,,,,1,0,12,12,9,1,W,none,,,,,,,,,,,,,,,
,,,,,,,,,,,,,,,WWA100,001,WWA100,2023-12-13_10h23.52.996,Trial go no go,2020.2.10,MacIntel,60,,,,space,1,0,13,13,38,1,X,space,0.3497,,,,,,,,,,,,,,
,,,,,,,,,,,,,,,WWA100,001,WWA100,2023-12-13_10h23.52.996,Trial go no go,2020.2.10,MacIntel,60,,,,space,1,0,14,14,12,1,X,space,0.3962,,,,,,,,,,,,,,
,,,,,,,,,,,,,,,WWA100,001,WWA100,2023-12-13_10h23.52.996,Trial go no go,2020.2.10,MacIntel,60,,,,space,1,0,15,15,23,1,X,space,0.3874,,,,,,,,,,,,,,
,,,,,,,,,,,,,,,WWA100,001,WWA100,2023-12-13_10h23.52.996,Trial go no go,2020.2.10,MacIntel,60,,,,,1,0,16,16,44,1,F,none,,,,,,,,,,,,,,,
,,,,,,,,,,,,,,,WWA100,001,WWA100,2023-12-13_10h23.52.996,Trial go no go,2020.2.10,MacIntel,60,,,,space,1,0,17,17,46,1,X,space,0.2863,,,,,,,,,,,,,,
,,,,,,,,,,,,,,,WWA100,001,WWA100,2023-12-13_10h23.52.996,Trial go no go,2020.2.10,MacIntel,60,,,,,1,0,18,18,49,1,E,none,,,,,,,,,,,,,,,
,,,,,,,,,,,,,,,WWA100,001,WWA100,2023-12-13_10h23.52.996,Trial go no go,2020.2.10,MacIntel,60,,,,,1,0,19,19,4,1,V,none,,,,,,,,,,,,,,,
,,,,,,,,,,,,,,,WWA100,001,WWA100,2023-12-13_10h23.52.996,Trial go no go,2020.2.10,MacIntel,60,,,,space,1,0,20,20,37,1,X,space,0.4168,,,,,,,,,,,,,,
,,,,,,,,,,,,,,,WWA100,001,WWA100,2023-12-13_10h23.52.996,Trial go no go,2020.2.10,MacIntel,60,,,,space,1,0,21,21,32,1,X,space,0.3786,,,,,,,,,,,,,,
,,,,,,,,,,,,,,,WWA100,001,WWA100,2023-12-13_10h23.52.996,Trial go no go,2020.2.10,MacIntel,60,,,,space,1,0,22,22,25,1,X,space,0.3419,,,,,,,,,,,,,,
,,,,,,,,,,,,,,,WWA100,001,WWA100,2023-12-13_10h23.52.996,Trial go no go,2020.2.10,MacIntel,60,,,,,1,0,23,23,19,1,K,none,,,,,,,,,,,,,,,
,,,,,,,,,,,,,,,WWA100,001,WWA100,2023-12-13_10h23.52.996,Trial go no go,2020.2.10,MacIntel,60,,,,space,1,0,24,24,5,1,X,space,0.3509,,,,,,,,,,,,,,
,,,,,,,,,,,,,,,WWA100,001,WWA100,2023-12-13_10h23.52.996,Trial go no go,2020.2.10,MacIntel,60,,,,space,1,0,25,25,45,1,X,space,0.3202,,,,,,,,,,,,,,
,,,,,,,,,,,,,,,WWA100,001,WWA100,2023-12-13_10h23.52.996,Trial go no go,2020.2.10,MacIntel,60,,,,space,1,0,26,26,35,1,X,space,0.3194,,,,,,,,,,,,,,
,,,,,,,,,,,,,,,WWA100,001,WWA100,2023-12-13_10h23.52.996,Trial go no go,2020.2.10,MacIntel,60,,,,space,1,0,27,27,21,1,X,space,0.4031,,,,,,,,,,,,,,
,,,,,,,,,,,,,,,WWA100,001,WWA100,2023-12-13_10h23.52.996,Trial go no go,2020.2.10,MacIntel,60,,,,space,1,0,28,28,7,1,X,space,0.4251,,,,,,,,,,,,,,
,,,,,,,,,,,,,,,WWA100,001,WWA100,2023-12-13_10h23.52.996,Trial go no go,2020.2.10,MacIntel,60,,,,space,1,0,29,29,6,1,X,space,0.4107,,,,,,,,,,,,,,
,,,,,,,,,,,,,,,WWA100,001,WWA100,2023-12-13_10h23.52.996,Trial go no go,2020.2.10,MacIntel,60,,,,space,1,0,30,30,16,1,X,space,0.4436,,,,,,,,,,,,,,
,,,,,,,,,,,,,,,WWA100,001,WWA100,2023-12-13_10h23.52.996,Trial go no go,2020.2.10,MacIntel,60,,,,space,1,0,31,31,13,1,X,space,0.3902,,,,,,,,,,,,,,
,,,,,,,,,,,,,,,WWA100,001,WWA100,2023-12-13_10h23.52.996,Trial go no go,2020.2.10,MacIntel,60,,,,space,1,0,32,32,33,1,X,space,0.3491,,,,,,,,,,,,,,
,,,,,,,,,,,,,,,WWA100,001,WWA100,2023-12-13_10h23.52.996,Trial go no go,2020.2.10,MacIntel,60,,,,,1,0,33,33,14,1,Y,none,,,,,,,,,,,,,,,
,,,,,,,,,,,,,,,WWA100,001,WWA100,2023-12-13_10h23.52.996,Trial go no go,2020.2.10,MacIntel,60,,,,space,1,0,34,34,11,1,X,space,0.3498,,,,,,,,,,,,,,
,,,,,,,,,,,,,,,WWA100,001,WWA100,2023-12-13_10h23.52.996,Trial go no go,2020.2.10,MacIntel,60,,,,,1,0,35,35,29,1,T,none,,,,,,,,,,,,,,,
,,,,,,,,,,,,,,,WWA100,001,WWA100,2023-12-13_10h23.52.996,Trial go no go,2020.2.10,MacIntel,60,,,,space,1,0,36,36,27,1,X,space,0.4487,,,,,,,,,,,,,,
,,,,,,,,,,,,,,,WWA100,001,WWA100,2023-12-13_10h23.52.996,Trial go no go,2020.2.10,MacIntel,60,,,,space,1,0,37,37,15,1,X,space,0.6036,,,,,,,,,,,,,,
,,,,,,,,,,,,,,,WWA100,001,WWA100,2023-12-13_10h23.52.996,Trial go no go,2020.2.10,MacIntel,60,,,,space,1,0,38,38,17,1,X,space,0.3369,,,,,,,,,,,,,,
,,,,,,,,,,,,,,,WWA100,001,WWA100,2023-12-13_10h23.52.996,Trial go no go,2020.2.10,MacIntel,60,,,,space,1,0,39,39,2,1,X,space,0.3708,,,,,,,,,,,,,,
,,,,,,,,,,,,,,,WWA100,001,WWA100,2023-12-13_10h23.52.996,Trial go no go,2020.2.10,MacIntel,60,,,,space,1,0,40,40,18,1,X,space,0.3198,,,,,,,,,,,,,,
,,,,,,,,,,,,,,,WWA100,001,WWA100,2023-12-13_10h23.52.996,Trial go no go,2020.2.10,MacIntel,60,,,,space,1,0,41,41,10,1,X,space,0.3714,,,,,,,,,,,,,,
,,,,,,,,,,,,,,,WWA100,001,WWA100,2023-12-13_10h23.52.996,Trial go no go,2020.2.10,MacIntel,60,,,,space,1,0,42,42,40,1,X,space,0.3348,,,,,,,,,,,,,,
,,,,,,,,,,,,,,,WWA100,001,WWA100,2023-12-13_10h23.52.996,Trial go no go,2020.2.10,MacIntel,60,,,,space,1,0,43,43,3,1,X,space,0.3675,,,,,,,,,,,,,,
,,,,,,,,,,,,,,,WWA100,001,WWA100,2023-12-13_10h23.52.996,Trial go no go,2020.2.10,MacIntel,60,,,,space,1,0,44,44,48,1,X,space,0.3586,,,,,,,,,,,,,,
,,,,,,,,,,,,,,,WWA100,001,WWA100,2023-12-13_10h23.52.996,Trial go no go,2020.2.10,MacIntel,60,,,,,1,0,45,45,34,1,N,none,,,,,,,,,,,,,,,
,,,,,,,,,,,,,,,WWA100,001,WWA100,2023-12-13_10h23.52.996,Trial go no go,2020.2.10,MacIntel,60,,,,space,1,0,46,46,43,1,X,space,0.3019,,,,,,,,,,,,,,
,,,,,,,,,,,,,,,WWA100,001,WWA100,2023-12-13_10h23.52.996,Trial go no go,2020.2.10,MacIntel,60,,,,space,1,0,47,47,42,1,X,space,0.3393,,,,,,,,,,,,,,
,,,,,,,,,,,,,,,WWA100,001,WWA100,2023-12-13_10h23.52.996,Trial go no go,2020.2.10,MacIntel,60,,,,space,1,0,48,48,47,1,X,space,0.3363,,,,,,,,,,,,,,
,,,,,,,,,,,,,,,WWA100,001,WWA100,2023-12-13_10h23.52.996,Trial go no go,2020.2.10,MacIntel,60,,,,space,1,0,49,49,30,1,X,space,0.3376,,,,,,,,,,,,,,
,,,,,,,,,,,,,,,WWA100,001,WWA100,2023-12-13_10h23.52.996,Trial go no go,2020.2.10,MacIntel,60,,,,,,,,,,,,,,z,14.2295,,0,0,0,0,22,1,T,space,,,
,,,,,,,,,,,,,,,WWA100,001,WWA100,2023-12-13_10h23.52.996,Trial go no go,2020.2.10,MacIntel,60,,,,,,,,,,,,,,,,space,1,0,1,1,0,1,W,space,0.52,,
,,,,,,,,,,,,,,,WWA100,001,WWA100,2023-12-13_10h23.52.996,Trial go no go,2020.2.10,MacIntel,60,,,,,,,,,,,,,,,,,1,0,2,2,24,1,X,none,,,
,,,,,,,,,,,,,,,WWA100,001,WWA100,2023-12-13_10h23.52.996,Trial go no go,2020.2.10,MacIntel,60,,,,,,,,,,,,,,,,space,1,0,3,3,1,1,E,space,0.2939,,
,,,,,,,,,,,,,,,WWA100,001,WWA100,2023-12-13_10h23.52.996,Trial go no go,2020.2.10,MacIntel,60,,,,,,,,,,,,,,,,space,1,0,4,4,5,1,Y,space,0.5042,,
,,,,,,,,,,,,,,,WWA100,001,WWA100,2023-12-13_10h23.52.996,Trial go no go,2020.2.10,MacIntel,60,,,,,,,,,,,,,,,,space,1,0,5,5,26,1,A,space,0.4136,,
,,,,,,,,,,,,,,,WWA100,001,WWA100,2023-12-13_10h23.52.996,Trial go no go,2020.2.10,MacIntel,60,,,,,,,,,,,,,,,,space,1,0,6,6,3,1,T,space,0.4007,,
,,,,,,,,,,,,,,,WWA100,001,WWA100,2023-12-13_10h23.52.996,Trial go no go,2020.2.10,MacIntel,60,,,,,,,,,,,,,,,,space,1,0,7,7,21,1,R,space,0.4654,,
,,,,,,,,,,,,,,,WWA100,001,WWA100,2023-12-13_10h23.52.996,Trial go no go,2020.2.10,MacIntel,60,,,,,,,,,,,,,,,,space,1,0,8,8,46,1,F,space,0.4122,,
,,,,,,,,,,,,,,,WWA100,001,WWA100,2023-12-13_10h23.52.996,Trial go no go,2020.2.10,MacIntel,60,,,,,,,,,,,,,,,,space,1,0,9,9,11,1,K,space,0.4032,,
,,,,,,,,,,,,,,,WWA100,001,WWA100,2023-12-13_10h23.52.996,Trial go no go,2020.2.10,MacIntel,60,,,,,,,,,,,,,,,,,1,0,10,10,44,1,X,none,,,
,,,,,,,,,,,,,,,WWA100,001,WWA100,2023-12-13_10h23.52.996,Trial go no go,2020.2.10,MacIntel,60,,,,,,,,,,,,,,,,space,1,0,11,11,48,1,K,space,0.3523,,
,,,,,,,,,,,,,,,WWA100,001,WWA100,2023-12-13_10h23.52.996,Trial go no go,2020.2.10,MacIntel,60,,,,,,,,,,,,,,,,space,1,0,12,12,47,1,H,space,0.3665,,
,,,,,,,,,,,,,,,WWA100,001,WWA100,2023-12-13_10h23.52.996,Trial go no go,2020.2.10,MacIntel,60,,,,,,,,,,,,,,,,space,1,0,13,13,33,1,V,space,0.4809,,
,,,,,,,,,,,,,,,WWA100,001,WWA100,2023-12-13_10h23.52.996,Trial go no go,2020.2.10,MacIntel,60,,,,,,,,,,,,,,,,space,1,0,14,14,27,1,F,space,0.3845,,
,,,,,,,,,,,,,,,WWA100,001,WWA100,2023-12-13_10h23.52.996,Trial go no go,2020.2.10,MacIntel,60,,,,,,,,,,,,,,,,space,1,0,15,15,6,1,I,space,0.3691,,
,,,,,,,,,,,,,,,WWA100,001,WWA100,2023-12-13_10h23.52.996,Trial go no go,2020.2.10,MacIntel,60,,,,,,,,,,,,,,,,space,1,0,16,16,32,1,Z,space,0.3116,,
,,,,,,,,,,,,,,,WWA100,001,WWA100,2023-12-13_10h23.52.996,Trial go no go,2020.2.10,MacIntel,60,,,,,,,,,,,,,,,,space,1,0,17,17,23,1,Y,space,0.4119,,
,,,,,,,,,,,,,,,WWA100,001,WWA100,2023-12-13_10h23.52.996,Trial go no go,2020.2.10,MacIntel,60,,,,,,,,,,,,,,,,,1,0,18,18,14,1,X,none,,,
,,,,,,,,,,,,,,,WWA100,001,WWA100,2023-12-13_10h23.52.996,Trial go no go,2020.2.10,MacIntel,60,,,,,,,,,,,,,,,,space,1,0,19,19,38,1,E,space,0.2674,,
,,,,,,,,,,,,,,,WWA100,001,WWA100,2023-12-13_10h23.52.996,Trial go no go,2020.2.10,MacIntel,60,,,,,,,,,,,,,,,,space,1,0,20,20,42,1,Y,space,0.3177,,
,,,,,,,,,,,,,,,WWA100,001,WWA100,2023-12-13_10h23.52.996,Trial go no go,2020.2.10,MacIntel,60,,,,,,,,,,,,,,,,space,1,0,21,21,20,1,E,space,0.3467,,
,,,,,,,,,,,,,,,WWA100,001,WWA100,2023-12-13_10h23.52.996,Trial go no go,2020.2.10,MacIntel,60,,,,,,,,,,,,,,,,space,1,0,22,22,37,1,W,space,0.3178,,
,,,,,,,,,,,,,,,WWA100,001,WWA100,2023-12-13_10h23.52.996,Trial go no go,2020.2.10,MacIntel,60,,,,,,,,,,,,,,,,space,1,0,23,23,30,1,K,space,0.3529,,
,,,,,,,,,,,,,,,WWA100,001,WWA100,2023-12-13_10h23.52.996,Trial go no go,2020.2.10,MacIntel,60,,,,,,,,,,,,,,,,,1,0,24,24,19,1,X,none,,,
,,,,,,,,,,,,,,,WWA100,001,WWA100,2023-12-13_10h23.52.996,Trial go no go,2020.2.10,MacIntel,60,,,,,,,,,,,,,,,,space,0,0,25,25,9,1,X,none,0.3279,,
,,,,,,,,,,,,,,,WWA100,001,WWA100,2023-12-13_10h23.52.996,Trial go no go,2020.2.10,MacIntel,60,,,,,,,,,,,,,,,,,1,0,26,26,34,1,X,none,,,
,,,,,,,,,,,,,,,WWA100,001,WWA100,2023-12-13_10h23.52.996,Trial go no go,2020.2.10,MacIntel,60,,,,,,,,,,,,,,,,space,1,0,27,27,15,1,V,space,0.413,,
,,,,,,,,,,,,,,,WWA100,001,WWA100,2023-12-13_10h23.52.996,Trial go no go,2020.2.10,MacIntel,60,,,,,,,,,,,,,,,,,1,0,28,28,4,1,X,none,,,
,,,,,,,,,,,,,,,WWA100,001,WWA100,2023-12-13_10h23.52.996,Trial go no go,2020.2.10,MacIntel,60,,,,,,,,,,,,,,,,space,1,0,29,29,28,1,H,space,0.4565,,
,,,,,,,,,,,,,,,WWA100,001,WWA100,2023-12-13_10h23.52.996,Trial go no go,2020.2.10,MacIntel,60,,,,,,,,,,,,,,,,space,1,0,30,30,12,1,L,space,0.4442,,
,,,,,,,,,,,,,,,WWA100,001,WWA100,2023-12-13_10h23.52.996,Trial go no go,2020.2.10,MacIntel,60,,,,,,,,,,,,,,,,,1,0,31,31,29,1,X,none,,,
,,,,,,,,,,,,,,,WWA100,001,WWA100,2023-12-13_10h23.52.996,Trial go no go,2020.2.10,MacIntel,60,,,,,,,,,,,,,,,,space,1,0,32,32,13,1,Z,space,0.3258,,
,,,,,,,,,,,,,,,WWA100,001,WWA100,2023-12-13_10h23.52.996,Trial go no go,2020.2.10,MacIntel,60,,,,,,,,,,,,,,,,space,1,0,33,33,7,1,A,space,0.334,,
,,,,,,,,,,,,,,,WWA100,001,WWA100,2023-12-13_10h23.52.996,Trial go no go,2020.2.10,MacIntel,60,,,,,,,,,,,,,,,,space,1,0,34,34,17,1,M,space,0.501,,
,,,,,,,,,,,,,,,WWA100,001,WWA100,2023-12-13_10h23.52.996,Trial go no go,2020.2.10,MacIntel,60,,,,,,,,,,,,,,,,space,1,0,35,35,25,1,I,space,0.4918,,
,,,,,,,,,,,,,,,WWA100,001,WWA100,2023-12-13_10h23.52.996,Trial go no go,2020.2.10,MacIntel,60,,,,,,,,,,,,,,,,space,1,0,36,36,10,1,H,space,0.4493,,
,,,,,,,,,,,,,,,WWA100,001,WWA100,2023-12-13_10h23.52.996,Trial go no go,2020.2.10,MacIntel,60,,,,,,,,,,,,,,,,,1,0,37,37,39,1,X,none,,,
,,,,,,,,,,,,,,,WWA100,001,WWA100,2023-12-13_10h23.52.996,Trial go no go,2020.2.10,MacIntel,60,,,,,,,,,,,,,,,,space,1,0,38,38,8,1,F,space,0.3718,,
,,,,,,,,,,,,,,,WWA100,001,WWA100,2023-12-13_10h23.52.996,Trial go no go,2020.2.10,MacIntel,60,,,,,,,,,,,,,,,,space,1,0,39,39,31,1,L,space,0.3704,,
,,,,,,,,,,,,,,,WWA100,001,WWA100,2023-12-13_10h23.52.996,Trial go no go,2020.2.10,MacIntel,60,,,,,,,,,,,,,,,,space,1,0,40,40,43,1,I,space,0.4038,,
,,,,,,,,,,,,,,,WWA100,001,WWA100,2023-12-13_10h23.52.996,Trial go no go,2020.2.10,MacIntel,60,,,,,,,,,,,,,,,,space,1,0,41,41,36,1,M,space,0.3827,,
,,,,,,,,,,,,,,,WWA100,001,WWA100,2023-12-13_10h23.52.996,Trial go no go,2020.2.10,MacIntel,60,,,,,,,,,,,,,,,,space,1,0,42,42,2,1,R,space,0.3517,,
,,,,,,,,,,,,,,,WWA100,001,WWA100,2023-12-13_10h23.52.996,Trial go no go,2020.2.10,MacIntel,60,,,,,,,,,,,,,,,,space,1,0,43,43,40,1,R,space,0.3761,,
,,,,,,,,,,,,,,,WWA100,001,WWA100,2023-12-13_10h23.52.996,Trial go no go,2020.2.10,MacIntel,60,,,,,,,,,,,,,,,,space,1,0,44,44,41,1,T,space,0.4224,,
,,,,,,,,,,,,,,,WWA100,001,WWA100,2023-12-13_10h23.52.996,Trial go no go,2020.2.10,MacIntel,60,,,,,,,,,,,,,,,,space,1,0,45,45,16,1,N,space,0.4172,,
,,,,,,,,,,,,,,,WWA100,001,WWA100,2023-12-13_10h23.52.996,Trial go no go,2020.2.10,MacIntel,60,,,,,,,,,,,,,,,,space,1,0,46,46,45,1,A,space,0.3828,,
,,,,,,,,,,,,,,,WWA100,001,WWA100,2023-12-13_10h23.52.996,Trial go no go,2020.2.10,MacIntel,60,,,,,,,,,,,,,,,,space,1,0,47,47,18,1,W,space,0.4513,,
,,,,,,,,,,,,,,,WWA100,001,WWA100,2023-12-13_10h23.52.996,Trial go no go,2020.2.10,MacIntel,60,,,,,,,,,,,,,,,,,1,0,48,48,49,1,X,none,,,
,,,,,,,,,,,,,,,WWA100,001,WWA100,2023-12-13_10h23.52.996,Trial go no go,2020.2.10,MacIntel,60,,,,,,,,,,,,,,,,space,1,0,49,49,35,1,N,space,0.4356,,
,,,,,,,,,,,,,,,WWA100,001,WWA100,2023-12-13_10h23.52.996,Trial go no go,2020.2.10,MacIntel,60,,,,,,,,,,,,,,,,,,,,,,,,,,space,19.955
