resp_Welcome.keys,resp_Welcome.rt,resp_Instr_Intro.keys,resp_Instr_Intro.rt,resp_Instr_Prac1.keys,resp_Instr_Prac1.rt,resp_trial_Prac1.keys,resp_trial_Prac1.corr,resp_trial_Prac1.rt,prac_trials.thisRepN,prac_trials.thisTrialN,prac_trials.thisN,prac_trials.thisIndex,prac_trials.ran,stimulus_prac1,corrAns_prac1,participant,session,indywidualny kod,date,expName,psychopyVersion,OS,frameRate,resp_Instr_Test1.keys,resp_Instr_Test1.rt,resp_trial_Test1.keys,resp_trial_Test1.corr,resp_trial_Test1.rt,test1trial.thisRepN,test1trial.thisTrialN,test1trial.thisN,test1trial.thisIndex,test1trial.ran,stimulus_test1,corrAns_test1,resp_Instr_Test2.keys,resp_Instr_Test2.rt,key_resp_Test2.keys,key_resp_Test2.corr,key_resp_Test2.rt,test2trial.thisRepN,test2trial.thisTrialN,test2trial.thisN,test2trial.thisIndex,test2trial.ran,stimulus_test2,corrAns_test2,resp_theEnd.keys,resp_theEnd.rt
space,12.366,space,8.8353,space,4.0358,space,1,0.5671,0,0,0,10,1,X,space,WWA108,001,WWA108,2024-02-13_11h11.53.914,Trial go no go,2020.2.10,MacIntel,60,,,,,,,,,,,,,,,,,,,,,,,,,,
,,,,,,space,1,0.6074,0,1,1,7,1,X,space,WWA108,001,WWA108,2024-02-13_11h11.53.914,Trial go no go,2020.2.10,MacIntel,60,,,,,,,,,,,,,,,,,,,,,,,,,,
,,,,,,space,1,0.4286,0,2,2,3,1,X,space,WWA108,001,WWA108,2024-02-13_11h11.53.914,Trial go no go,2020.2.10,MacIntel,60,,,,,,,,,,,,,,,,,,,,,,,,,,
,,,,,,space,1,0.4375,0,3,3,5,1,X,space,WWA108,001,WWA108,2024-02-13_11h11.53.914,Trial go no go,2020.2.10,MacIntel,60,,,,,,,,,,,,,,,,,,,,,,,,,,
,,,,,,space,1,0.525,0,4,4,8,1,X,space,WWA108,001,WWA108,2024-02-13_11h11.53.914,Trial go no go,2020.2.10,MacIntel,60,,,,,,,,,,,,,,,,,,,,,,,,,,
,,,,,,space,1,0.504,0,5,5,0,1,X,space,WWA108,001,WWA108,2024-02-13_11h11.53.914,Trial go no go,2020.2.10,MacIntel,60,,,,,,,,,,,,,,,,,,,,,,,,,,
,,,,,,,1,,0,6,6,9,1,V,none,WWA108,001,WWA108,2024-02-13_11h11.53.914,Trial go no go,2020.2.10,MacIntel,60,,,,,,,,,,,,,,,,,,,,,,,,,,
,,,,,,space,1,0.4497,0,7,7,1,1,X,space,WWA108,001,WWA108,2024-02-13_11h11.53.914,Trial go no go,2020.2.10,MacIntel,60,,,,,,,,,,,,,,,,,,,,,,,,,,
,,,,,,,1,,0,8,8,4,1,W,none,WWA108,001,WWA108,2024-02-13_11h11.53.914,Trial go no go,2020.2.10,MacIntel,60,,,,,,,,,,,,,,,,,,,,,,,,,,
,,,,,,space,1,0.4114,0,9,9,12,1,X,space,WWA108,001,WWA108,2024-02-13_11h11.53.914,Trial go no go,2020.2.10,MacIntel,60,,,,,,,,,,,,,,,,,,,,,,,,,,
,,,,,,space,1,0.504,0,10,10,11,1,X,space,WWA108,001,WWA108,2024-02-13_11h11.53.914,Trial go no go,2020.2.10,MacIntel,60,,,,,,,,,,,,,,,,,,,,,,,,,,
,,,,,,,1,,0,11,11,14,1,K,none,WWA108,001,WWA108,2024-02-13_11h11.53.914,Trial go no go,2020.2.10,MacIntel,60,,,,,,,,,,,,,,,,,,,,,,,,,,
,,,,,,space,1,0.5179,0,12,12,6,1,X,space,WWA108,001,WWA108,2024-02-13_11h11.53.914,Trial go no go,2020.2.10,MacIntel,60,,,,,,,,,,,,,,,,,,,,,,,,,,
,,,,,,space,1,0.3923,0,13,13,2,1,X,space,WWA108,001,WWA108,2024-02-13_11h11.53.914,Trial go no go,2020.2.10,MacIntel,60,,,,,,,,,,,,,,,,,,,,,,,,,,
,,,,,,space,1,0.3695,0,14,14,13,1,X,space,WWA108,001,WWA108,2024-02-13_11h11.53.914,Trial go no go,2020.2.10,MacIntel,60,,,,,,,,,,,,,,,,,,,,,,,,,,
,,,,,,,,,,,,,,,,WWA108,001,WWA108,2024-02-13_11h11.53.914,Trial go no go,2020.2.10,MacIntel,60,space,7.4029,space,1,0.5574,0,0,0,40,1,X,space,,,,,,,,,,,,,,
,,,,,,,,,,,,,,,,WWA108,001,WWA108,2024-02-13_11h11.53.914,Trial go no go,2020.2.10,MacIntel,60,,,,1,,0,1,1,14,1,Y,none,,,,,,,,,,,,,,
,,,,,,,,,,,,,,,,WWA108,001,WWA108,2024-02-13_11h11.53.914,Trial go no go,2020.2.10,MacIntel,60,,,space,1,0.315,0,2,2,46,1,X,space,,,,,,,,,,,,,,
,,,,,,,,,,,,,,,,WWA108,001,WWA108,2024-02-13_11h11.53.914,Trial go no go,2020.2.10,MacIntel,60,,,space,0,0.6011,0,3,3,9,1,W,none,,,,,,,,,,,,,,
,,,,,,,,,,,,,,,,WWA108,001,WWA108,2024-02-13_11h11.53.914,Trial go no go,2020.2.10,MacIntel,60,,,space,1,0.3678,0,4,4,35,1,X,space,,,,,,,,,,,,,,
,,,,,,,,,,,,,,,,WWA108,001,WWA108,2024-02-13_11h11.53.914,Trial go no go,2020.2.10,MacIntel,60,,,,1,,0,5,5,24,1,H,none,,,,,,,,,,,,,,
,,,,,,,,,,,,,,,,WWA108,001,WWA108,2024-02-13_11h11.53.914,Trial go no go,2020.2.10,MacIntel,60,,,space,1,0.3214,0,6,6,38,1,X,space,,,,,,,,,,,,,,
,,,,,,,,,,,,,,,,WWA108,001,WWA108,2024-02-13_11h11.53.914,Trial go no go,2020.2.10,MacIntel,60,,,space,1,0.3967,0,7,7,13,1,X,space,,,,,,,,,,,,,,
,,,,,,,,,,,,,,,,WWA108,001,WWA108,2024-02-13_11h11.53.914,Trial go no go,2020.2.10,MacIntel,60,,,space,1,0.3378,0,8,8,5,1,X,space,,,,,,,,,,,,,,
,,,,,,,,,,,,,,,,WWA108,001,WWA108,2024-02-13_11h11.53.914,Trial go no go,2020.2.10,MacIntel,60,,,space,1,0.3379,0,9,9,17,1,X,space,,,,,,,,,,,,,,
,,,,,,,,,,,,,,,,WWA108,001,WWA108,2024-02-13_11h11.53.914,Trial go no go,2020.2.10,MacIntel,60,,,space,1,0.3622,0,10,10,11,1,X,space,,,,,,,,,,,,,,
,,,,,,,,,,,,,,,,WWA108,001,WWA108,2024-02-13_11h11.53.914,Trial go no go,2020.2.10,MacIntel,60,,,space,1,0.387,0,11,11,8,1,X,space,,,,,,,,,,,,,,
,,,,,,,,,,,,,,,,WWA108,001,WWA108,2024-02-13_11h11.53.914,Trial go no go,2020.2.10,MacIntel,60,,,space,1,0.3369,0,12,12,32,1,X,space,,,,,,,,,,,,,,
,,,,,,,,,,,,,,,,WWA108,001,WWA108,2024-02-13_11h11.53.914,Trial go no go,2020.2.10,MacIntel,60,,,space,1,0.3568,0,13,13,47,1,X,space,,,,,,,,,,,,,,
,,,,,,,,,,,,,,,,WWA108,001,WWA108,2024-02-13_11h11.53.914,Trial go no go,2020.2.10,MacIntel,60,,,,1,,0,14,14,34,1,N,none,,,,,,,,,,,,,,
,,,,,,,,,,,,,,,,WWA108,001,WWA108,2024-02-13_11h11.53.914,Trial go no go,2020.2.10,MacIntel,60,,,space,1,0.3369,0,15,15,42,1,X,space,,,,,,,,,,,,,,
,,,,,,,,,,,,,,,,WWA108,001,WWA108,2024-02-13_11h11.53.914,Trial go no go,2020.2.10,MacIntel,60,,,space,1,0.3408,0,16,16,23,1,X,space,,,,,,,,,,,,,,
,,,,,,,,,,,,,,,,WWA108,001,WWA108,2024-02-13_11h11.53.914,Trial go no go,2020.2.10,MacIntel,60,,,space,1,0.363,0,17,17,30,1,X,space,,,,,,,,,,,,,,
,,,,,,,,,,,,,,,,WWA108,001,WWA108,2024-02-13_11h11.53.914,Trial go no go,2020.2.10,MacIntel,60,,,space,1,0.3706,0,18,18,25,1,X,space,,,,,,,,,,,,,,
,,,,,,,,,,,,,,,,WWA108,001,WWA108,2024-02-13_11h11.53.914,Trial go no go,2020.2.10,MacIntel,60,,,space,1,0.2855,0,19,19,16,1,X,space,,,,,,,,,,,,,,
,,,,,,,,,,,,,,,,WWA108,001,WWA108,2024-02-13_11h11.53.914,Trial go no go,2020.2.10,MacIntel,60,,,space,1,0.3382,0,20,20,33,1,X,space,,,,,,,,,,,,,,
,,,,,,,,,,,,,,,,WWA108,001,WWA108,2024-02-13_11h11.53.914,Trial go no go,2020.2.10,MacIntel,60,,,space,1,0.3093,0,21,21,0,1,X,space,,,,,,,,,,,,,,
,,,,,,,,,,,,,,,,WWA108,001,WWA108,2024-02-13_11h11.53.914,Trial go no go,2020.2.10,MacIntel,60,,,space,1,0.3439,0,22,22,3,1,X,space,,,,,,,,,,,,,,
,,,,,,,,,,,,,,,,WWA108,001,WWA108,2024-02-13_11h11.53.914,Trial go no go,2020.2.10,MacIntel,60,,,space,1,0.2878,0,23,23,45,1,X,space,,,,,,,,,,,,,,
,,,,,,,,,,,,,,,,WWA108,001,WWA108,2024-02-13_11h11.53.914,Trial go no go,2020.2.10,MacIntel,60,,,space,1,0.4089,0,24,24,36,1,X,space,,,,,,,,,,,,,,
,,,,,,,,,,,,,,,,WWA108,001,WWA108,2024-02-13_11h11.53.914,Trial go no go,2020.2.10,MacIntel,60,,,,1,,0,25,25,49,1,E,none,,,,,,,,,,,,,,
,,,,,,,,,,,,,,,,WWA108,001,WWA108,2024-02-13_11h11.53.914,Trial go no go,2020.2.10,MacIntel,60,,,space,1,0.3006,0,26,26,28,1,X,space,,,,,,,,,,,,,,
,,,,,,,,,,,,,,,,WWA108,001,WWA108,2024-02-13_11h11.53.914,Trial go no go,2020.2.10,MacIntel,60,,,space,1,0.3136,0,27,27,18,1,X,space,,,,,,,,,,,,,,
,,,,,,,,,,,,,,,,WWA108,001,WWA108,2024-02-13_11h11.53.914,Trial go no go,2020.2.10,MacIntel,60,,,space,1,0.3704,0,28,28,7,1,X,space,,,,,,,,,,,,,,
,,,,,,,,,,,,,,,,WWA108,001,WWA108,2024-02-13_11h11.53.914,Trial go no go,2020.2.10,MacIntel,60,,,space,1,0.3056,0,29,29,27,1,X,space,,,,,,,,,,,,,,
,,,,,,,,,,,,,,,,WWA108,001,WWA108,2024-02-13_11h11.53.914,Trial go no go,2020.2.10,MacIntel,60,,,space,1,0.3375,0,30,30,31,1,X,space,,,,,,,,,,,,,,
,,,,,,,,,,,,,,,,WWA108,001,WWA108,2024-02-13_11h11.53.914,Trial go no go,2020.2.10,MacIntel,60,,,space,1,0.2928,0,31,31,12,1,X,space,,,,,,,,,,,,,,
,,,,,,,,,,,,,,,,WWA108,001,WWA108,2024-02-13_11h11.53.914,Trial go no go,2020.2.10,MacIntel,60,,,space,1,0.3106,0,32,32,6,1,X,space,,,,,,,,,,,,,,
,,,,,,,,,,,,,,,,WWA108,001,WWA108,2024-02-13_11h11.53.914,Trial go no go,2020.2.10,MacIntel,60,,,,1,,0,33,33,39,1,M,none,,,,,,,,,,,,,,
,,,,,,,,,,,,,,,,WWA108,001,WWA108,2024-02-13_11h11.53.914,Trial go no go,2020.2.10,MacIntel,60,,,space,1,0.3011,0,34,34,43,1,X,space,,,,,,,,,,,,,,
,,,,,,,,,,,,,,,,WWA108,001,WWA108,2024-02-13_11h11.53.914,Trial go no go,2020.2.10,MacIntel,60,,,,1,,0,35,35,44,1,F,none,,,,,,,,,,,,,,
,,,,,,,,,,,,,,,,WWA108,001,WWA108,2024-02-13_11h11.53.914,Trial go no go,2020.2.10,MacIntel,60,,,space,1,0.3564,0,36,36,26,1,X,space,,,,,,,,,,,,,,
,,,,,,,,,,,,,,,,WWA108,001,WWA108,2024-02-13_11h11.53.914,Trial go no go,2020.2.10,MacIntel,60,,,space,1,0.3614,0,37,37,22,1,X,space,,,,,,,,,,,,,,
,,,,,,,,,,,,,,,,WWA108,001,WWA108,2024-02-13_11h11.53.914,Trial go no go,2020.2.10,MacIntel,60,,,space,1,0.327,0,38,38,21,1,X,space,,,,,,,,,,,,,,
,,,,,,,,,,,,,,,,WWA108,001,WWA108,2024-02-13_11h11.53.914,Trial go no go,2020.2.10,MacIntel,60,,,space,1,0.34,0,39,39,2,1,X,space,,,,,,,,,,,,,,
,,,,,,,,,,,,,,,,WWA108,001,WWA108,2024-02-13_11h11.53.914,Trial go no go,2020.2.10,MacIntel,60,,,space,0,0.2686,0,40,40,4,1,V,none,,,,,,,,,,,,,,
,,,,,,,,,,,,,,,,WWA108,001,WWA108,2024-02-13_11h11.53.914,Trial go no go,2020.2.10,MacIntel,60,,,space,1,0.3526,0,41,41,10,1,X,space,,,,,,,,,,,,,,
,,,,,,,,,,,,,,,,WWA108,001,WWA108,2024-02-13_11h11.53.914,Trial go no go,2020.2.10,MacIntel,60,,,,1,,0,42,42,29,1,T,none,,,,,,,,,,,,,,
,,,,,,,,,,,,,,,,WWA108,001,WWA108,2024-02-13_11h11.53.914,Trial go no go,2020.2.10,MacIntel,60,,,,1,,0,43,43,19,1,K,none,,,,,,,,,,,,,,
,,,,,,,,,,,,,,,,WWA108,001,WWA108,2024-02-13_11h11.53.914,Trial go no go,2020.2.10,MacIntel,60,,,space,1,0.4521,0,44,44,37,1,X,space,,,,,,,,,,,,,,
,,,,,,,,,,,,,,,,WWA108,001,WWA108,2024-02-13_11h11.53.914,Trial go no go,2020.2.10,MacIntel,60,,,space,1,0.337,0,45,45,48,1,X,space,,,,,,,,,,,,,,
,,,,,,,,,,,,,,,,WWA108,001,WWA108,2024-02-13_11h11.53.914,Trial go no go,2020.2.10,MacIntel,60,,,space,1,0.3075,0,46,46,15,1,X,space,,,,,,,,,,,,,,
,,,,,,,,,,,,,,,,WWA108,001,WWA108,2024-02-13_11h11.53.914,Trial go no go,2020.2.10,MacIntel,60,,,space,1,0.3042,0,47,47,1,1,X,space,,,,,,,,,,,,,,
,,,,,,,,,,,,,,,,WWA108,001,WWA108,2024-02-13_11h11.53.914,Trial go no go,2020.2.10,MacIntel,60,,,space,1,0.3209,0,48,48,41,1,X,space,,,,,,,,,,,,,,
,,,,,,,,,,,,,,,,WWA108,001,WWA108,2024-02-13_11h11.53.914,Trial go no go,2020.2.10,MacIntel,60,,,space,1,0.3015,0,49,49,20,1,X,space,,,,,,,,,,,,,,
,,,,,,,,,,,,,,,,WWA108,001,WWA108,2024-02-13_11h11.53.914,Trial go no go,2020.2.10,MacIntel,60,,,,,,,,,,,,,z,8.1942,space,1,0.7282,0,0,0,15,1,V,space,,
,,,,,,,,,,,,,,,,WWA108,001,WWA108,2024-02-13_11h11.53.914,Trial go no go,2020.2.10,MacIntel,60,,,,,,,,,,,,,,,space,1,0.4632,0,1,1,26,1,A,space,,
,,,,,,,,,,,,,,,,WWA108,001,WWA108,2024-02-13_11h11.53.914,Trial go no go,2020.2.10,MacIntel,60,,,,,,,,,,,,,,,space,1,0.3538,0,2,2,17,1,M,space,,
,,,,,,,,,,,,,,,,WWA108,001,WWA108,2024-02-13_11h11.53.914,Trial go no go,2020.2.10,MacIntel,60,,,,,,,,,,,,,,,space,1,0.3492,0,3,3,46,1,F,space,,
,,,,,,,,,,,,,,,,WWA108,001,WWA108,2024-02-13_11h11.53.914,Trial go no go,2020.2.10,MacIntel,60,,,,,,,,,,,,,,,space,1,0.272,0,4,4,7,1,A,space,,
,,,,,,,,,,,,,,,,WWA108,001,WWA108,2024-02-13_11h11.53.914,Trial go no go,2020.2.10,MacIntel,60,,,,,,,,,,,,,,,space,1,0.2852,0,5,5,0,1,W,space,,
,,,,,,,,,,,,,,,,WWA108,001,WWA108,2024-02-13_11h11.53.914,Trial go no go,2020.2.10,MacIntel,60,,,,,,,,,,,,,,,space,0,0.2901,0,6,6,39,1,X,none,,
,,,,,,,,,,,,,,,,WWA108,001,WWA108,2024-02-13_11h11.53.914,Trial go no go,2020.2.10,MacIntel,60,,,,,,,,,,,,,,,space,1,0.3167,0,7,7,3,1,T,space,,
,,,,,,,,,,,,,,,,WWA108,001,WWA108,2024-02-13_11h11.53.914,Trial go no go,2020.2.10,MacIntel,60,,,,,,,,,,,,,,,space,1,0.3707,0,8,8,37,1,W,space,,
,,,,,,,,,,,,,,,,WWA108,001,WWA108,2024-02-13_11h11.53.914,Trial go no go,2020.2.10,MacIntel,60,,,,,,,,,,,,,,,space,0,0.3312,0,9,9,14,1,X,none,,
,,,,,,,,,,,,,,,,WWA108,001,WWA108,2024-02-13_11h11.53.914,Trial go no go,2020.2.10,MacIntel,60,,,,,,,,,,,,,,,space,1,0.2687,0,10,10,35,1,N,space,,
,,,,,,,,,,,,,,,,WWA108,001,WWA108,2024-02-13_11h11.53.914,Trial go no go,2020.2.10,MacIntel,60,,,,,,,,,,,,,,,space,1,0.4665,0,11,11,18,1,W,space,,
,,,,,,,,,,,,,,,,WWA108,001,WWA108,2024-02-13_11h11.53.914,Trial go no go,2020.2.10,MacIntel,60,,,,,,,,,,,,,,,space,1,0.4039,0,12,12,22,1,T,space,,
,,,,,,,,,,,,,,,,WWA108,001,WWA108,2024-02-13_11h11.53.914,Trial go no go,2020.2.10,MacIntel,60,,,,,,,,,,,,,,,space,1,0.3969,0,13,13,12,1,L,space,,
,,,,,,,,,,,,,,,,WWA108,001,WWA108,2024-02-13_11h11.53.914,Trial go no go,2020.2.10,MacIntel,60,,,,,,,,,,,,,,,space,1,0.3889,0,14,14,31,1,L,space,,
,,,,,,,,,,,,,,,,WWA108,001,WWA108,2024-02-13_11h11.53.914,Trial go no go,2020.2.10,MacIntel,60,,,,,,,,,,,,,,,space,1,0.3818,0,15,15,8,1,F,space,,
,,,,,,,,,,,,,,,,WWA108,001,WWA108,2024-02-13_11h11.53.914,Trial go no go,2020.2.10,MacIntel,60,,,,,,,,,,,,,,,,1,,0,16,16,49,1,X,none,,
,,,,,,,,,,,,,,,,WWA108,001,WWA108,2024-02-13_11h11.53.914,Trial go no go,2020.2.10,MacIntel,60,,,,,,,,,,,,,,,space,1,0.3069,0,17,17,27,1,F,space,,
,,,,,,,,,,,,,,,,WWA108,001,WWA108,2024-02-13_11h11.53.914,Trial go no go,2020.2.10,MacIntel,60,,,,,,,,,,,,,,,,1,,0,18,18,44,1,X,none,,
,,,,,,,,,,,,,,,,WWA108,001,WWA108,2024-02-13_11h11.53.914,Trial go no go,2020.2.10,MacIntel,60,,,,,,,,,,,,,,,space,1,0.3324,0,19,19,45,1,A,space,,
,,,,,,,,,,,,,,,,WWA108,001,WWA108,2024-02-13_11h11.53.914,Trial go no go,2020.2.10,MacIntel,60,,,,,,,,,,,,,,,space,1,0.4633,0,20,20,36,1,M,space,,
,,,,,,,,,,,,,,,,WWA108,001,WWA108,2024-02-13_11h11.53.914,Trial go no go,2020.2.10,MacIntel,60,,,,,,,,,,,,,,,space,1,0.3322,0,21,21,47,1,H,space,,
,,,,,,,,,,,,,,,,WWA108,001,WWA108,2024-02-13_11h11.53.914,Trial go no go,2020.2.10,MacIntel,60,,,,,,,,,,,,,,,,1,,0,22,22,9,1,X,none,,
,,,,,,,,,,,,,,,,WWA108,001,WWA108,2024-02-13_11h11.53.914,Trial go no go,2020.2.10,MacIntel,60,,,,,,,,,,,,,,,space,1,0.2691,0,23,23,11,1,K,space,,
,,,,,,,,,,,,,,,,WWA108,001,WWA108,2024-02-13_11h11.53.914,Trial go no go,2020.2.10,MacIntel,60,,,,,,,,,,,,,,,space,1,0.3551,0,24,24,38,1,E,space,,
,,,,,,,,,,,,,,,,WWA108,001,WWA108,2024-02-13_11h11.53.914,Trial go no go,2020.2.10,MacIntel,60,,,,,,,,,,,,,,,space,1,0.3484,0,25,25,6,1,I,space,,
,,,,,,,,,,,,,,,,WWA108,001,WWA108,2024-02-13_11h11.53.914,Trial go no go,2020.2.10,MacIntel,60,,,,,,,,,,,,,,,space,1,0.7227,0,26,26,5,1,Y,space,,
,,,,,,,,,,,,,,,,WWA108,001,WWA108,2024-02-13_11h11.53.914,Trial go no go,2020.2.10,MacIntel,60,,,,,,,,,,,,,,,space,1,0.4643,0,27,27,21,1,R,space,,
,,,,,,,,,,,,,,,,WWA108,001,WWA108,2024-02-13_11h11.53.914,Trial go no go,2020.2.10,MacIntel,60,,,,,,,,,,,,,,,space,1,0.4185,0,28,28,30,1,K,space,,
,,,,,,,,,,,,,,,,WWA108,001,WWA108,2024-02-13_11h11.53.914,Trial go no go,2020.2.10,MacIntel,60,,,,,,,,,,,,,,,space,0,0.3473,0,29,29,24,1,X,none,,
,,,,,,,,,,,,,,,,WWA108,001,WWA108,2024-02-13_11h11.53.914,Trial go no go,2020.2.10,MacIntel,60,,,,,,,,,,,,,,,,1,,0,30,30,34,1,X,none,,
,,,,,,,,,,,,,,,,WWA108,001,WWA108,2024-02-13_11h11.53.914,Trial go no go,2020.2.10,MacIntel,60,,,,,,,,,,,,,,,space,1,0.3802,0,31,31,13,1,Z,space,,
,,,,,,,,,,,,,,,,WWA108,001,WWA108,2024-02-13_11h11.53.914,Trial go no go,2020.2.10,MacIntel,60,,,,,,,,,,,,,,,,1,,0,32,32,19,1,X,none,,
,,,,,,,,,,,,,,,,WWA108,001,WWA108,2024-02-13_11h11.53.914,Trial go no go,2020.2.10,MacIntel,60,,,,,,,,,,,,,,,space,1,0.3387,0,33,33,2,1,R,space,,
,,,,,,,,,,,,,,,,WWA108,001,WWA108,2024-02-13_11h11.53.914,Trial go no go,2020.2.10,MacIntel,60,,,,,,,,,,,,,,,space,1,0.4011,0,34,34,41,1,T,space,,
,,,,,,,,,,,,,,,,WWA108,001,WWA108,2024-02-13_11h11.53.914,Trial go no go,2020.2.10,MacIntel,60,,,,,,,,,,,,,,,space,1,0.6011,0,35,35,32,1,Z,space,,
,,,,,,,,,,,,,,,,WWA108,001,WWA108,2024-02-13_11h11.53.914,Trial go no go,2020.2.10,MacIntel,60,,,,,,,,,,,,,,,space,1,0.4188,0,36,36,10,1,H,space,,
,,,,,,,,,,,,,,,,WWA108,001,WWA108,2024-02-13_11h11.53.914,Trial go no go,2020.2.10,MacIntel,60,,,,,,,,,,,,,,,space,1,0.3816,0,37,37,40,1,R,space,,
,,,,,,,,,,,,,,,,WWA108,001,WWA108,2024-02-13_11h11.53.914,Trial go no go,2020.2.10,MacIntel,60,,,,,,,,,,,,,,,space,1,0.368,0,38,38,1,1,E,space,,
,,,,,,,,,,,,,,,,WWA108,001,WWA108,2024-02-13_11h11.53.914,Trial go no go,2020.2.10,MacIntel,60,,,,,,,,,,,,,,,space,1,0.3642,0,39,39,25,1,I,space,,
,,,,,,,,,,,,,,,,WWA108,001,WWA108,2024-02-13_11h11.53.914,Trial go no go,2020.2.10,MacIntel,60,,,,,,,,,,,,,,,space,1,0.3853,0,40,40,42,1,Y,space,,
,,,,,,,,,,,,,,,,WWA108,001,WWA108,2024-02-13_11h11.53.914,Trial go no go,2020.2.10,MacIntel,60,,,,,,,,,,,,,,,space,1,0.4653,0,41,41,20,1,E,space,,
,,,,,,,,,,,,,,,,WWA108,001,WWA108,2024-02-13_11h11.53.914,Trial go no go,2020.2.10,MacIntel,60,,,,,,,,,,,,,,,space,1,0.3483,0,42,42,48,1,K,space,,
,,,,,,,,,,,,,,,,WWA108,001,WWA108,2024-02-13_11h11.53.914,Trial go no go,2020.2.10,MacIntel,60,,,,,,,,,,,,,,,space,1,0.3215,0,43,43,16,1,N,space,,
,,,,,,,,,,,,,,,,WWA108,001,WWA108,2024-02-13_11h11.53.914,Trial go no go,2020.2.10,MacIntel,60,,,,,,,,,,,,,,,space,1,0.3833,0,44,44,43,1,I,space,,
,,,,,,,,,,,,,,,,WWA108,001,WWA108,2024-02-13_11h11.53.914,Trial go no go,2020.2.10,MacIntel,60,,,,,,,,,,,,,,,space,1,0.5095,0,45,45,23,1,Y,space,,
,,,,,,,,,,,,,,,,WWA108,001,WWA108,2024-02-13_11h11.53.914,Trial go no go,2020.2.10,MacIntel,60,,,,,,,,,,,,,,,,1,,0,46,46,29,1,X,none,,
,,,,,,,,,,,,,,,,WWA108,001,WWA108,2024-02-13_11h11.53.914,Trial go no go,2020.2.10,MacIntel,60,,,,,,,,,,,,,,,space,1,0.3519,0,47,47,33,1,V,space,,
,,,,,,,,,,,,,,,,WWA108,001,WWA108,2024-02-13_11h11.53.914,Trial go no go,2020.2.10,MacIntel,60,,,,,,,,,,,,,,,space,1,0.3682,0,48,48,28,1,H,space,,
,,,,,,,,,,,,,,,,WWA108,001,WWA108,2024-02-13_11h11.53.914,Trial go no go,2020.2.10,MacIntel,60,,,,,,,,,,,,,,,space,0,0.3403,0,49,49,4,1,X,none,,
,,,,,,,,,,,,,,,,WWA108,001,WWA108,2024-02-13_11h11.53.914,Trial go no go,2020.2.10,MacIntel,60,,,,,,,,,,,,,,,,,,,,,,,,,space,5.053
