resp_Welcome.keys,resp_Welcome.rt,resp_Instr_Intro.keys,resp_Instr_Intro.rt,resp_Instr_Prac1.keys,resp_Instr_Prac1.rt,resp_trial_Prac1.keys,resp_trial_Prac1.corr,resp_trial_Prac1.rt,prac_trials.thisRepN,prac_trials.thisTrialN,prac_trials.thisN,prac_trials.thisIndex,prac_trials.ran,stimulus_prac1,corrAns_prac1,participant,session,indywidualny kod,date,expName,psychopyVersion,OS,frameRate,resp_Instr_Test1.keys,resp_Instr_Test1.rt,resp_trial_Test1.keys,resp_trial_Test1.corr,resp_trial_Test1.rt,test1trial.thisRepN,test1trial.thisTrialN,test1trial.thisN,test1trial.thisIndex,test1trial.ran,stimulus_test1,corrAns_test1,resp_Instr_Test2.keys,resp_Instr_Test2.rt,key_resp_Test2.keys,key_resp_Test2.corr,test2trial.thisRepN,test2trial.thisTrialN,test2trial.thisN,test2trial.thisIndex,test2trial.ran,stimulus_test2,corrAns_test2,key_resp_Test2.rt,resp_theEnd.keys,resp_theEnd.rt
space,8.2664,space,18.292,space,17.4684,space,1,0.5243,0,0,0,2,1,X,space,WWA50,001,WWA50,2023-10-31_13h15.37.748,Trial go no go,2020.2.10,MacIntel,60,,,,,,,,,,,,,,,,,,,,,,,,,,
,,,,,,space,1,0.5896,0,1,1,13,1,X,space,WWA50,001,WWA50,2023-10-31_13h15.37.748,Trial go no go,2020.2.10,MacIntel,60,,,,,,,,,,,,,,,,,,,,,,,,,,
,,,,,,space,1,0.4378,0,2,2,11,1,X,space,WWA50,001,WWA50,2023-10-31_13h15.37.748,Trial go no go,2020.2.10,MacIntel,60,,,,,,,,,,,,,,,,,,,,,,,,,,
,,,,,,,1,,0,3,3,9,1,V,none,WWA50,001,WWA50,2023-10-31_13h15.37.748,Trial go no go,2020.2.10,MacIntel,60,,,,,,,,,,,,,,,,,,,,,,,,,,
,,,,,,space,1,0.5579,0,4,4,3,1,X,space,WWA50,001,WWA50,2023-10-31_13h15.37.748,Trial go no go,2020.2.10,MacIntel,60,,,,,,,,,,,,,,,,,,,,,,,,,,
,,,,,,space,1,0.4491,0,5,5,6,1,X,space,WWA50,001,WWA50,2023-10-31_13h15.37.748,Trial go no go,2020.2.10,MacIntel,60,,,,,,,,,,,,,,,,,,,,,,,,,,
,,,,,,,1,,0,6,6,4,1,W,none,WWA50,001,WWA50,2023-10-31_13h15.37.748,Trial go no go,2020.2.10,MacIntel,60,,,,,,,,,,,,,,,,,,,,,,,,,,
,,,,,,space,1,0.5329,0,7,7,5,1,X,space,WWA50,001,WWA50,2023-10-31_13h15.37.748,Trial go no go,2020.2.10,MacIntel,60,,,,,,,,,,,,,,,,,,,,,,,,,,
,,,,,,,1,,0,8,8,14,1,K,none,WWA50,001,WWA50,2023-10-31_13h15.37.748,Trial go no go,2020.2.10,MacIntel,60,,,,,,,,,,,,,,,,,,,,,,,,,,
,,,,,,space,1,0.4689,0,9,9,8,1,X,space,WWA50,001,WWA50,2023-10-31_13h15.37.748,Trial go no go,2020.2.10,MacIntel,60,,,,,,,,,,,,,,,,,,,,,,,,,,
,,,,,,space,1,0.5515,0,10,10,10,1,X,space,WWA50,001,WWA50,2023-10-31_13h15.37.748,Trial go no go,2020.2.10,MacIntel,60,,,,,,,,,,,,,,,,,,,,,,,,,,
,,,,,,space,1,0.567,0,11,11,12,1,X,space,WWA50,001,WWA50,2023-10-31_13h15.37.748,Trial go no go,2020.2.10,MacIntel,60,,,,,,,,,,,,,,,,,,,,,,,,,,
,,,,,,space,1,0.4231,0,12,12,1,1,X,space,WWA50,001,WWA50,2023-10-31_13h15.37.748,Trial go no go,2020.2.10,MacIntel,60,,,,,,,,,,,,,,,,,,,,,,,,,,
,,,,,,space,1,0.5904,0,13,13,0,1,X,space,WWA50,001,WWA50,2023-10-31_13h15.37.748,Trial go no go,2020.2.10,MacIntel,60,,,,,,,,,,,,,,,,,,,,,,,,,,
,,,,,,space,1,0.4671,0,14,14,7,1,X,space,WWA50,001,WWA50,2023-10-31_13h15.37.748,Trial go no go,2020.2.10,MacIntel,60,,,,,,,,,,,,,,,,,,,,,,,,,,
,,,,,,,,,,,,,,,,WWA50,001,WWA50,2023-10-31_13h15.37.748,Trial go no go,2020.2.10,MacIntel,60,space,11.4047,space,1,0.4765,0,0,0,22,1,X,space,,,,,,,,,,,,,,
,,,,,,,,,,,,,,,,WWA50,001,WWA50,2023-10-31_13h15.37.748,Trial go no go,2020.2.10,MacIntel,60,,,space,1,0.3655,0,1,1,16,1,X,space,,,,,,,,,,,,,,
,,,,,,,,,,,,,,,,WWA50,001,WWA50,2023-10-31_13h15.37.748,Trial go no go,2020.2.10,MacIntel,60,,,space,1,0.327,0,2,2,26,1,X,space,,,,,,,,,,,,,,
,,,,,,,,,,,,,,,,WWA50,001,WWA50,2023-10-31_13h15.37.748,Trial go no go,2020.2.10,MacIntel,60,,,space,1,0.319,0,3,3,17,1,X,space,,,,,,,,,,,,,,
,,,,,,,,,,,,,,,,WWA50,001,WWA50,2023-10-31_13h15.37.748,Trial go no go,2020.2.10,MacIntel,60,,,space,1,0.3513,0,4,4,5,1,X,space,,,,,,,,,,,,,,
,,,,,,,,,,,,,,,,WWA50,001,WWA50,2023-10-31_13h15.37.748,Trial go no go,2020.2.10,MacIntel,60,,,space,0,0.3805,0,5,5,39,1,M,none,,,,,,,,,,,,,,
,,,,,,,,,,,,,,,,WWA50,001,WWA50,2023-10-31_13h15.37.748,Trial go no go,2020.2.10,MacIntel,60,,,space,1,0.4,0,6,6,7,1,X,space,,,,,,,,,,,,,,
,,,,,,,,,,,,,,,,WWA50,001,WWA50,2023-10-31_13h15.37.748,Trial go no go,2020.2.10,MacIntel,60,,,,1,,0,7,7,14,1,Y,none,,,,,,,,,,,,,,
,,,,,,,,,,,,,,,,WWA50,001,WWA50,2023-10-31_13h15.37.748,Trial go no go,2020.2.10,MacIntel,60,,,space,1,0.3231,0,8,8,23,1,X,space,,,,,,,,,,,,,,
,,,,,,,,,,,,,,,,WWA50,001,WWA50,2023-10-31_13h15.37.748,Trial go no go,2020.2.10,MacIntel,60,,,space,1,0.4192,0,9,9,21,1,X,space,,,,,,,,,,,,,,
,,,,,,,,,,,,,,,,WWA50,001,WWA50,2023-10-31_13h15.37.748,Trial go no go,2020.2.10,MacIntel,60,,,,1,,0,10,10,34,1,N,none,,,,,,,,,,,,,,
,,,,,,,,,,,,,,,,WWA50,001,WWA50,2023-10-31_13h15.37.748,Trial go no go,2020.2.10,MacIntel,60,,,space,1,0.3321,0,11,11,2,1,X,space,,,,,,,,,,,,,,
,,,,,,,,,,,,,,,,WWA50,001,WWA50,2023-10-31_13h15.37.748,Trial go no go,2020.2.10,MacIntel,60,,,space,1,0.3437,0,12,12,33,1,X,space,,,,,,,,,,,,,,
,,,,,,,,,,,,,,,,WWA50,001,WWA50,2023-10-31_13h15.37.748,Trial go no go,2020.2.10,MacIntel,60,,,space,1,0.3268,0,13,13,6,1,X,space,,,,,,,,,,,,,,
,,,,,,,,,,,,,,,,WWA50,001,WWA50,2023-10-31_13h15.37.748,Trial go no go,2020.2.10,MacIntel,60,,,space,1,0.4016,0,14,14,45,1,X,space,,,,,,,,,,,,,,
,,,,,,,,,,,,,,,,WWA50,001,WWA50,2023-10-31_13h15.37.748,Trial go no go,2020.2.10,MacIntel,60,,,,1,,0,15,15,44,1,F,none,,,,,,,,,,,,,,
,,,,,,,,,,,,,,,,WWA50,001,WWA50,2023-10-31_13h15.37.748,Trial go no go,2020.2.10,MacIntel,60,,,space,1,0.463,0,16,16,20,1,X,space,,,,,,,,,,,,,,
,,,,,,,,,,,,,,,,WWA50,001,WWA50,2023-10-31_13h15.37.748,Trial go no go,2020.2.10,MacIntel,60,,,,1,,0,17,17,24,1,H,none,,,,,,,,,,,,,,
,,,,,,,,,,,,,,,,WWA50,001,WWA50,2023-10-31_13h15.37.748,Trial go no go,2020.2.10,MacIntel,60,,,space,1,0.4156,0,18,18,43,1,X,space,,,,,,,,,,,,,,
,,,,,,,,,,,,,,,,WWA50,001,WWA50,2023-10-31_13h15.37.748,Trial go no go,2020.2.10,MacIntel,60,,,space,1,0.3919,0,19,19,46,1,X,space,,,,,,,,,,,,,,
,,,,,,,,,,,,,,,,WWA50,001,WWA50,2023-10-31_13h15.37.748,Trial go no go,2020.2.10,MacIntel,60,,,space,1,0.3706,0,20,20,13,1,X,space,,,,,,,,,,,,,,
,,,,,,,,,,,,,,,,WWA50,001,WWA50,2023-10-31_13h15.37.748,Trial go no go,2020.2.10,MacIntel,60,,,space,1,0.341,0,21,21,42,1,X,space,,,,,,,,,,,,,,
,,,,,,,,,,,,,,,,WWA50,001,WWA50,2023-10-31_13h15.37.748,Trial go no go,2020.2.10,MacIntel,60,,,space,1,0.4631,0,22,22,18,1,X,space,,,,,,,,,,,,,,
,,,,,,,,,,,,,,,,WWA50,001,WWA50,2023-10-31_13h15.37.748,Trial go no go,2020.2.10,MacIntel,60,,,,1,,0,23,23,19,1,K,none,,,,,,,,,,,,,,
,,,,,,,,,,,,,,,,WWA50,001,WWA50,2023-10-31_13h15.37.748,Trial go no go,2020.2.10,MacIntel,60,,,space,1,0.3653,0,24,24,31,1,X,space,,,,,,,,,,,,,,
,,,,,,,,,,,,,,,,WWA50,001,WWA50,2023-10-31_13h15.37.748,Trial go no go,2020.2.10,MacIntel,60,,,space,1,0.4026,0,25,25,38,1,X,space,,,,,,,,,,,,,,
,,,,,,,,,,,,,,,,WWA50,001,WWA50,2023-10-31_13h15.37.748,Trial go no go,2020.2.10,MacIntel,60,,,space,1,0.3359,0,26,26,41,1,X,space,,,,,,,,,,,,,,
,,,,,,,,,,,,,,,,WWA50,001,WWA50,2023-10-31_13h15.37.748,Trial go no go,2020.2.10,MacIntel,60,,,space,1,0.3317,0,27,27,15,1,X,space,,,,,,,,,,,,,,
,,,,,,,,,,,,,,,,WWA50,001,WWA50,2023-10-31_13h15.37.748,Trial go no go,2020.2.10,MacIntel,60,,,space,1,0.3528,0,28,28,35,1,X,space,,,,,,,,,,,,,,
,,,,,,,,,,,,,,,,WWA50,001,WWA50,2023-10-31_13h15.37.748,Trial go no go,2020.2.10,MacIntel,60,,,space,1,0.3755,0,29,29,8,1,X,space,,,,,,,,,,,,,,
,,,,,,,,,,,,,,,,WWA50,001,WWA50,2023-10-31_13h15.37.748,Trial go no go,2020.2.10,MacIntel,60,,,space,1,0.3445,0,30,30,27,1,X,space,,,,,,,,,,,,,,
,,,,,,,,,,,,,,,,WWA50,001,WWA50,2023-10-31_13h15.37.748,Trial go no go,2020.2.10,MacIntel,60,,,space,1,0.4717,0,31,31,0,1,X,space,,,,,,,,,,,,,,
,,,,,,,,,,,,,,,,WWA50,001,WWA50,2023-10-31_13h15.37.748,Trial go no go,2020.2.10,MacIntel,60,,,space,1,0.3432,0,32,32,32,1,X,space,,,,,,,,,,,,,,
,,,,,,,,,,,,,,,,WWA50,001,WWA50,2023-10-31_13h15.37.748,Trial go no go,2020.2.10,MacIntel,60,,,space,1,0.4039,0,33,33,12,1,X,space,,,,,,,,,,,,,,
,,,,,,,,,,,,,,,,WWA50,001,WWA50,2023-10-31_13h15.37.748,Trial go no go,2020.2.10,MacIntel,60,,,,1,,0,34,34,49,1,E,none,,,,,,,,,,,,,,
,,,,,,,,,,,,,,,,WWA50,001,WWA50,2023-10-31_13h15.37.748,Trial go no go,2020.2.10,MacIntel,60,,,,1,,0,35,35,4,1,V,none,,,,,,,,,,,,,,
,,,,,,,,,,,,,,,,WWA50,001,WWA50,2023-10-31_13h15.37.748,Trial go no go,2020.2.10,MacIntel,60,,,space,1,0.405,0,36,36,40,1,X,space,,,,,,,,,,,,,,
,,,,,,,,,,,,,,,,WWA50,001,WWA50,2023-10-31_13h15.37.748,Trial go no go,2020.2.10,MacIntel,60,,,space,1,0.3376,0,37,37,1,1,X,space,,,,,,,,,,,,,,
,,,,,,,,,,,,,,,,WWA50,001,WWA50,2023-10-31_13h15.37.748,Trial go no go,2020.2.10,MacIntel,60,,,space,1,0.3357,0,38,38,25,1,X,space,,,,,,,,,,,,,,
,,,,,,,,,,,,,,,,WWA50,001,WWA50,2023-10-31_13h15.37.748,Trial go no go,2020.2.10,MacIntel,60,,,space,1,0.3025,0,39,39,11,1,X,space,,,,,,,,,,,,,,
,,,,,,,,,,,,,,,,WWA50,001,WWA50,2023-10-31_13h15.37.748,Trial go no go,2020.2.10,MacIntel,60,,,space,1,0.3426,0,40,40,47,1,X,space,,,,,,,,,,,,,,
,,,,,,,,,,,,,,,,WWA50,001,WWA50,2023-10-31_13h15.37.748,Trial go no go,2020.2.10,MacIntel,60,,,space,1,0.3501,0,41,41,10,1,X,space,,,,,,,,,,,,,,
,,,,,,,,,,,,,,,,WWA50,001,WWA50,2023-10-31_13h15.37.748,Trial go no go,2020.2.10,MacIntel,60,,,space,0,0.3527,0,42,42,9,1,W,none,,,,,,,,,,,,,,
,,,,,,,,,,,,,,,,WWA50,001,WWA50,2023-10-31_13h15.37.748,Trial go no go,2020.2.10,MacIntel,60,,,space,1,0.4244,0,43,43,48,1,X,space,,,,,,,,,,,,,,
,,,,,,,,,,,,,,,,WWA50,001,WWA50,2023-10-31_13h15.37.748,Trial go no go,2020.2.10,MacIntel,60,,,space,1,0.3343,0,44,44,37,1,X,space,,,,,,,,,,,,,,
,,,,,,,,,,,,,,,,WWA50,001,WWA50,2023-10-31_13h15.37.748,Trial go no go,2020.2.10,MacIntel,60,,,space,1,0.3381,0,45,45,3,1,X,space,,,,,,,,,,,,,,
,,,,,,,,,,,,,,,,WWA50,001,WWA50,2023-10-31_13h15.37.748,Trial go no go,2020.2.10,MacIntel,60,,,,1,,0,46,46,29,1,T,none,,,,,,,,,,,,,,
,,,,,,,,,,,,,,,,WWA50,001,WWA50,2023-10-31_13h15.37.748,Trial go no go,2020.2.10,MacIntel,60,,,space,1,0.3323,0,47,47,36,1,X,space,,,,,,,,,,,,,,
,,,,,,,,,,,,,,,,WWA50,001,WWA50,2023-10-31_13h15.37.748,Trial go no go,2020.2.10,MacIntel,60,,,space,1,0.461,0,48,48,28,1,X,space,,,,,,,,,,,,,,
,,,,,,,,,,,,,,,,WWA50,001,WWA50,2023-10-31_13h15.37.748,Trial go no go,2020.2.10,MacIntel,60,,,space,1,0.3821,0,49,49,30,1,X,space,,,,,,,,,,,,,,
,,,,,,,,,,,,,,,,WWA50,001,WWA50,2023-10-31_13h15.37.748,Trial go no go,2020.2.10,MacIntel,60,,,,,,,,,,,,,z,19.8458,,0,0,0,0,23,1,Y,space,,,
,,,,,,,,,,,,,,,,WWA50,001,WWA50,2023-10-31_13h15.37.748,Trial go no go,2020.2.10,MacIntel,60,,,,,,,,,,,,,,,,0,0,1,1,12,1,L,space,,,
,,,,,,,,,,,,,,,,WWA50,001,WWA50,2023-10-31_13h15.37.748,Trial go no go,2020.2.10,MacIntel,60,,,,,,,,,,,,,,,space,1,0,2,2,13,1,Z,space,0.3184,,
,,,,,,,,,,,,,,,,WWA50,001,WWA50,2023-10-31_13h15.37.748,Trial go no go,2020.2.10,MacIntel,60,,,,,,,,,,,,,,,space,1,0,3,3,26,1,A,space,0.3023,,
,,,,,,,,,,,,,,,,WWA50,001,WWA50,2023-10-31_13h15.37.748,Trial go no go,2020.2.10,MacIntel,60,,,,,,,,,,,,,,,,1,0,4,4,44,1,X,none,,,
,,,,,,,,,,,,,,,,WWA50,001,WWA50,2023-10-31_13h15.37.748,Trial go no go,2020.2.10,MacIntel,60,,,,,,,,,,,,,,,space,1,0,5,5,21,1,R,space,0.445,,
,,,,,,,,,,,,,,,,WWA50,001,WWA50,2023-10-31_13h15.37.748,Trial go no go,2020.2.10,MacIntel,60,,,,,,,,,,,,,,,space,1,0,6,6,11,1,K,space,0.3317,,
,,,,,,,,,,,,,,,,WWA50,001,WWA50,2023-10-31_13h15.37.748,Trial go no go,2020.2.10,MacIntel,60,,,,,,,,,,,,,,,,1,0,7,7,19,1,X,none,,,
,,,,,,,,,,,,,,,,WWA50,001,WWA50,2023-10-31_13h15.37.748,Trial go no go,2020.2.10,MacIntel,60,,,,,,,,,,,,,,,space,1,0,8,8,41,1,T,space,0.3372,,
,,,,,,,,,,,,,,,,WWA50,001,WWA50,2023-10-31_13h15.37.748,Trial go no go,2020.2.10,MacIntel,60,,,,,,,,,,,,,,,space,1,0,9,9,30,1,K,space,0.486,,
,,,,,,,,,,,,,,,,WWA50,001,WWA50,2023-10-31_13h15.37.748,Trial go no go,2020.2.10,MacIntel,60,,,,,,,,,,,,,,,space,1,0,10,10,37,1,W,space,0.3398,,
,,,,,,,,,,,,,,,,WWA50,001,WWA50,2023-10-31_13h15.37.748,Trial go no go,2020.2.10,MacIntel,60,,,,,,,,,,,,,,,space,1,0,11,11,46,1,F,space,0.4053,,
,,,,,,,,,,,,,,,,WWA50,001,WWA50,2023-10-31_13h15.37.748,Trial go no go,2020.2.10,MacIntel,60,,,,,,,,,,,,,,,space,1,0,12,12,18,1,W,space,0.3474,,
,,,,,,,,,,,,,,,,WWA50,001,WWA50,2023-10-31_13h15.37.748,Trial go no go,2020.2.10,MacIntel,60,,,,,,,,,,,,,,,space,1,0,13,13,38,1,E,space,0.4316,,
,,,,,,,,,,,,,,,,WWA50,001,WWA50,2023-10-31_13h15.37.748,Trial go no go,2020.2.10,MacIntel,60,,,,,,,,,,,,,,,space,1,0,14,14,2,1,R,space,0.3031,,
,,,,,,,,,,,,,,,,WWA50,001,WWA50,2023-10-31_13h15.37.748,Trial go no go,2020.2.10,MacIntel,60,,,,,,,,,,,,,,,space,1,0,15,15,16,1,N,space,0.3005,,
,,,,,,,,,,,,,,,,WWA50,001,WWA50,2023-10-31_13h15.37.748,Trial go no go,2020.2.10,MacIntel,60,,,,,,,,,,,,,,,space,1,0,16,16,36,1,M,space,0.3476,,
,,,,,,,,,,,,,,,,WWA50,001,WWA50,2023-10-31_13h15.37.748,Trial go no go,2020.2.10,MacIntel,60,,,,,,,,,,,,,,,space,1,0,17,17,25,1,I,space,0.4524,,
,,,,,,,,,,,,,,,,WWA50,001,WWA50,2023-10-31_13h15.37.748,Trial go no go,2020.2.10,MacIntel,60,,,,,,,,,,,,,,,,1,0,18,18,24,1,X,none,,,
,,,,,,,,,,,,,,,,WWA50,001,WWA50,2023-10-31_13h15.37.748,Trial go no go,2020.2.10,MacIntel,60,,,,,,,,,,,,,,,space,1,0,19,19,32,1,Z,space,0.4331,,
,,,,,,,,,,,,,,,,WWA50,001,WWA50,2023-10-31_13h15.37.748,Trial go no go,2020.2.10,MacIntel,60,,,,,,,,,,,,,,,space,1,0,20,20,17,1,M,space,0.2834,,
,,,,,,,,,,,,,,,,WWA50,001,WWA50,2023-10-31_13h15.37.748,Trial go no go,2020.2.10,MacIntel,60,,,,,,,,,,,,,,,space,1,0,21,21,27,1,F,space,0.365,,
,,,,,,,,,,,,,,,,WWA50,001,WWA50,2023-10-31_13h15.37.748,Trial go no go,2020.2.10,MacIntel,60,,,,,,,,,,,,,,,space,1,0,22,22,22,1,T,space,0.3057,,
,,,,,,,,,,,,,,,,WWA50,001,WWA50,2023-10-31_13h15.37.748,Trial go no go,2020.2.10,MacIntel,60,,,,,,,,,,,,,,,,1,0,23,23,29,1,X,none,,,
,,,,,,,,,,,,,,,,WWA50,001,WWA50,2023-10-31_13h15.37.748,Trial go no go,2020.2.10,MacIntel,60,,,,,,,,,,,,,,,,1,0,24,24,4,1,X,none,,,
,,,,,,,,,,,,,,,,WWA50,001,WWA50,2023-10-31_13h15.37.748,Trial go no go,2020.2.10,MacIntel,60,,,,,,,,,,,,,,,space,1,0,25,25,35,1,N,space,0.4312,,
,,,,,,,,,,,,,,,,WWA50,001,WWA50,2023-10-31_13h15.37.748,Trial go no go,2020.2.10,MacIntel,60,,,,,,,,,,,,,,,space,1,0,26,26,1,1,E,space,0.358,,
,,,,,,,,,,,,,,,,WWA50,001,WWA50,2023-10-31_13h15.37.748,Trial go no go,2020.2.10,MacIntel,60,,,,,,,,,,,,,,,space,1,0,27,27,33,1,V,space,0.4641,,
,,,,,,,,,,,,,,,,WWA50,001,WWA50,2023-10-31_13h15.37.748,Trial go no go,2020.2.10,MacIntel,60,,,,,,,,,,,,,,,space,1,0,28,28,43,1,I,space,0.3324,,
,,,,,,,,,,,,,,,,WWA50,001,WWA50,2023-10-31_13h15.37.748,Trial go no go,2020.2.10,MacIntel,60,,,,,,,,,,,,,,,space,1,0,29,29,5,1,Y,space,0.3162,,
,,,,,,,,,,,,,,,,WWA50,001,WWA50,2023-10-31_13h15.37.748,Trial go no go,2020.2.10,MacIntel,60,,,,,,,,,,,,,,,space,0,0,30,30,14,1,X,none,0.3198,,
,,,,,,,,,,,,,,,,WWA50,001,WWA50,2023-10-31_13h15.37.748,Trial go no go,2020.2.10,MacIntel,60,,,,,,,,,,,,,,,space,0,0,31,31,34,1,X,none,0.3596,,
,,,,,,,,,,,,,,,,WWA50,001,WWA50,2023-10-31_13h15.37.748,Trial go no go,2020.2.10,MacIntel,60,,,,,,,,,,,,,,,space,1,0,32,32,48,1,K,space,0.5113,,
,,,,,,,,,,,,,,,,WWA50,001,WWA50,2023-10-31_13h15.37.748,Trial go no go,2020.2.10,MacIntel,60,,,,,,,,,,,,,,,space,1,0,33,33,31,1,L,space,0.3389,,
,,,,,,,,,,,,,,,,WWA50,001,WWA50,2023-10-31_13h15.37.748,Trial go no go,2020.2.10,MacIntel,60,,,,,,,,,,,,,,,space,1,0,34,34,15,1,V,space,0.3822,,
,,,,,,,,,,,,,,,,WWA50,001,WWA50,2023-10-31_13h15.37.748,Trial go no go,2020.2.10,MacIntel,60,,,,,,,,,,,,,,,space,1,0,35,35,3,1,T,space,0.3686,,
,,,,,,,,,,,,,,,,WWA50,001,WWA50,2023-10-31_13h15.37.748,Trial go no go,2020.2.10,MacIntel,60,,,,,,,,,,,,,,,space,1,0,36,36,0,1,W,space,0.4143,,
,,,,,,,,,,,,,,,,WWA50,001,WWA50,2023-10-31_13h15.37.748,Trial go no go,2020.2.10,MacIntel,60,,,,,,,,,,,,,,,space,1,0,37,37,6,1,I,space,0.4882,,
,,,,,,,,,,,,,,,,WWA50,001,WWA50,2023-10-31_13h15.37.748,Trial go no go,2020.2.10,MacIntel,60,,,,,,,,,,,,,,,space,1,0,38,38,42,1,Y,space,0.5732,,
,,,,,,,,,,,,,,,,WWA50,001,WWA50,2023-10-31_13h15.37.748,Trial go no go,2020.2.10,MacIntel,60,,,,,,,,,,,,,,,space,0,0,39,39,39,1,X,none,0.3459,,
,,,,,,,,,,,,,,,,WWA50,001,WWA50,2023-10-31_13h15.37.748,Trial go no go,2020.2.10,MacIntel,60,,,,,,,,,,,,,,,space,1,0,40,40,7,1,A,space,0.2843,,
,,,,,,,,,,,,,,,,WWA50,001,WWA50,2023-10-31_13h15.37.748,Trial go no go,2020.2.10,MacIntel,60,,,,,,,,,,,,,,,space,1,0,41,41,47,1,H,space,0.3645,,
,,,,,,,,,,,,,,,,WWA50,001,WWA50,2023-10-31_13h15.37.748,Trial go no go,2020.2.10,MacIntel,60,,,,,,,,,,,,,,,space,0,0,42,42,9,1,X,none,0.3155,,
,,,,,,,,,,,,,,,,WWA50,001,WWA50,2023-10-31_13h15.37.748,Trial go no go,2020.2.10,MacIntel,60,,,,,,,,,,,,,,,space,1,0,43,43,8,1,F,space,0.2984,,
,,,,,,,,,,,,,,,,WWA50,001,WWA50,2023-10-31_13h15.37.748,Trial go no go,2020.2.10,MacIntel,60,,,,,,,,,,,,,,,space,1,0,44,44,40,1,R,space,0.3203,,
,,,,,,,,,,,,,,,,WWA50,001,WWA50,2023-10-31_13h15.37.748,Trial go no go,2020.2.10,MacIntel,60,,,,,,,,,,,,,,,space,0,0,45,45,49,1,X,none,0.3398,,
,,,,,,,,,,,,,,,,WWA50,001,WWA50,2023-10-31_13h15.37.748,Trial go no go,2020.2.10,MacIntel,60,,,,,,,,,,,,,,,space,1,0,46,46,28,1,H,space,0.3483,,
,,,,,,,,,,,,,,,,WWA50,001,WWA50,2023-10-31_13h15.37.748,Trial go no go,2020.2.10,MacIntel,60,,,,,,,,,,,,,,,space,1,0,47,47,10,1,H,space,0.4399,,
,,,,,,,,,,,,,,,,WWA50,001,WWA50,2023-10-31_13h15.37.748,Trial go no go,2020.2.10,MacIntel,60,,,,,,,,,,,,,,,space,1,0,48,48,45,1,A,space,0.3529,,
,,,,,,,,,,,,,,,,WWA50,001,WWA50,2023-10-31_13h15.37.748,Trial go no go,2020.2.10,MacIntel,60,,,,,,,,,,,,,,,space,1,0,49,49,20,1,E,space,0.3636,,
,,,,,,,,,,,,,,,,WWA50,001,WWA50,2023-10-31_13h15.37.748,Trial go no go,2020.2.10,MacIntel,60,,,,,,,,,,,,,,,,,,,,,,,,,space,27.7447
