resp_Welcome.keys,resp_Welcome.rt,resp_Instr_Intro.keys,resp_Instr_Intro.rt,resp_Instr_Prac1.keys,resp_Instr_Prac1.rt,resp_trial_Prac1.keys,resp_trial_Prac1.corr,prac_trials.thisRepN,prac_trials.thisTrialN,prac_trials.thisN,prac_trials.thisIndex,prac_trials.ran,stimulus_prac1,corrAns_prac1,participant,session,indywidualny kod,date,expName,psychopyVersion,OS,frameRate,resp_trial_Prac1.rt,resp_Instr_Test1.keys,resp_Instr_Test1.rt,resp_trial_Test1.keys,resp_trial_Test1.corr,resp_trial_Test1.rt,test1trial.thisRepN,test1trial.thisTrialN,test1trial.thisN,test1trial.thisIndex,test1trial.ran,stimulus_test1,corrAns_test1,resp_Instr_Test2.keys,resp_Instr_Test2.rt,key_resp_Test2.keys,key_resp_Test2.corr,test2trial.thisRepN,test2trial.thisTrialN,test2trial.thisN,test2trial.thisIndex,test2trial.ran,stimulus_test2,corrAns_test2,key_resp_Test2.rt,resp_theEnd.keys,resp_theEnd.rt
space,10.3024,space,22.6717,space,33.6737,,1,0,0,0,9,1,V,none,WWA57,001,WWA57,2024-02-14_11h05.46.242,Trial go no go,2020.2.10,MacIntel,60,,,,,,,,,,,,,,,,,,,,,,,,,,,
,,,,,,space,1,0,1,1,6,1,X,space,WWA57,001,WWA57,2024-02-14_11h05.46.242,Trial go no go,2020.2.10,MacIntel,60,0.6504,,,,,,,,,,,,,,,,,,,,,,,,,,
,,,,,,,1,0,2,2,4,1,W,none,WWA57,001,WWA57,2024-02-14_11h05.46.242,Trial go no go,2020.2.10,MacIntel,60,,,,,,,,,,,,,,,,,,,,,,,,,,,
,,,,,,space,1,0,3,3,3,1,X,space,WWA57,001,WWA57,2024-02-14_11h05.46.242,Trial go no go,2020.2.10,MacIntel,60,0.4731,,,,,,,,,,,,,,,,,,,,,,,,,,
,,,,,,space,1,0,4,4,11,1,X,space,WWA57,001,WWA57,2024-02-14_11h05.46.242,Trial go no go,2020.2.10,MacIntel,60,0.411,,,,,,,,,,,,,,,,,,,,,,,,,,
,,,,,,space,1,0,5,5,0,1,X,space,WWA57,001,WWA57,2024-02-14_11h05.46.242,Trial go no go,2020.2.10,MacIntel,60,0.421,,,,,,,,,,,,,,,,,,,,,,,,,,
,,,,,,space,1,0,6,6,2,1,X,space,WWA57,001,WWA57,2024-02-14_11h05.46.242,Trial go no go,2020.2.10,MacIntel,60,0.4233,,,,,,,,,,,,,,,,,,,,,,,,,,
,,,,,,space,1,0,7,7,7,1,X,space,WWA57,001,WWA57,2024-02-14_11h05.46.242,Trial go no go,2020.2.10,MacIntel,60,0.4747,,,,,,,,,,,,,,,,,,,,,,,,,,
,,,,,,space,1,0,8,8,5,1,X,space,WWA57,001,WWA57,2024-02-14_11h05.46.242,Trial go no go,2020.2.10,MacIntel,60,0.3381,,,,,,,,,,,,,,,,,,,,,,,,,,
,,,,,,,1,0,9,9,14,1,K,none,WWA57,001,WWA57,2024-02-14_11h05.46.242,Trial go no go,2020.2.10,MacIntel,60,,,,,,,,,,,,,,,,,,,,,,,,,,,
,,,,,,space,1,0,10,10,13,1,X,space,WWA57,001,WWA57,2024-02-14_11h05.46.242,Trial go no go,2020.2.10,MacIntel,60,0.3948,,,,,,,,,,,,,,,,,,,,,,,,,,
,,,,,,space,1,0,11,11,8,1,X,space,WWA57,001,WWA57,2024-02-14_11h05.46.242,Trial go no go,2020.2.10,MacIntel,60,0.3755,,,,,,,,,,,,,,,,,,,,,,,,,,
,,,,,,space,1,0,12,12,1,1,X,space,WWA57,001,WWA57,2024-02-14_11h05.46.242,Trial go no go,2020.2.10,MacIntel,60,0.34,,,,,,,,,,,,,,,,,,,,,,,,,,
,,,,,,space,1,0,13,13,12,1,X,space,WWA57,001,WWA57,2024-02-14_11h05.46.242,Trial go no go,2020.2.10,MacIntel,60,0.2672,,,,,,,,,,,,,,,,,,,,,,,,,,
,,,,,,space,1,0,14,14,10,1,X,space,WWA57,001,WWA57,2024-02-14_11h05.46.242,Trial go no go,2020.2.10,MacIntel,60,0.3573,,,,,,,,,,,,,,,,,,,,,,,,,,
,,,,,,,,,,,,,,,WWA57,001,WWA57,2024-02-14_11h05.46.242,Trial go no go,2020.2.10,MacIntel,60,,space,20.638,space,1,0.3736,0,0,0,11,1,X,space,,,,,,,,,,,,,,
,,,,,,,,,,,,,,,WWA57,001,WWA57,2024-02-14_11h05.46.242,Trial go no go,2020.2.10,MacIntel,60,,,,space,1,0.4518,0,1,1,30,1,X,space,,,,,,,,,,,,,,
,,,,,,,,,,,,,,,WWA57,001,WWA57,2024-02-14_11h05.46.242,Trial go no go,2020.2.10,MacIntel,60,,,,space,1,0.2383,0,2,2,40,1,X,space,,,,,,,,,,,,,,
,,,,,,,,,,,,,,,WWA57,001,WWA57,2024-02-14_11h05.46.242,Trial go no go,2020.2.10,MacIntel,60,,,,,1,,0,3,3,14,1,Y,none,,,,,,,,,,,,,,
,,,,,,,,,,,,,,,WWA57,001,WWA57,2024-02-14_11h05.46.242,Trial go no go,2020.2.10,MacIntel,60,,,,space,1,0.3338,0,4,4,12,1,X,space,,,,,,,,,,,,,,
,,,,,,,,,,,,,,,WWA57,001,WWA57,2024-02-14_11h05.46.242,Trial go no go,2020.2.10,MacIntel,60,,,,space,0,0.3642,0,5,5,49,1,E,none,,,,,,,,,,,,,,
,,,,,,,,,,,,,,,WWA57,001,WWA57,2024-02-14_11h05.46.242,Trial go no go,2020.2.10,MacIntel,60,,,,,0,,0,6,6,46,1,X,space,,,,,,,,,,,,,,
,,,,,,,,,,,,,,,WWA57,001,WWA57,2024-02-14_11h05.46.242,Trial go no go,2020.2.10,MacIntel,60,,,,,1,,0,7,7,29,1,T,none,,,,,,,,,,,,,,
,,,,,,,,,,,,,,,WWA57,001,WWA57,2024-02-14_11h05.46.242,Trial go no go,2020.2.10,MacIntel,60,,,,space,1,0.2832,0,8,8,47,1,X,space,,,,,,,,,,,,,,
,,,,,,,,,,,,,,,WWA57,001,WWA57,2024-02-14_11h05.46.242,Trial go no go,2020.2.10,MacIntel,60,,,,space,1,0.523,0,9,9,1,1,X,space,,,,,,,,,,,,,,
,,,,,,,,,,,,,,,WWA57,001,WWA57,2024-02-14_11h05.46.242,Trial go no go,2020.2.10,MacIntel,60,,,,space,1,0.3118,0,10,10,42,1,X,space,,,,,,,,,,,,,,
,,,,,,,,,,,,,,,WWA57,001,WWA57,2024-02-14_11h05.46.242,Trial go no go,2020.2.10,MacIntel,60,,,,space,1,0.3504,0,11,11,33,1,X,space,,,,,,,,,,,,,,
,,,,,,,,,,,,,,,WWA57,001,WWA57,2024-02-14_11h05.46.242,Trial go no go,2020.2.10,MacIntel,60,,,,space,1,0.3195,0,12,12,16,1,X,space,,,,,,,,,,,,,,
,,,,,,,,,,,,,,,WWA57,001,WWA57,2024-02-14_11h05.46.242,Trial go no go,2020.2.10,MacIntel,60,,,,space,0,0.2776,0,13,13,34,1,N,none,,,,,,,,,,,,,,
,,,,,,,,,,,,,,,WWA57,001,WWA57,2024-02-14_11h05.46.242,Trial go no go,2020.2.10,MacIntel,60,,,,space,1,0.3986,0,14,14,10,1,X,space,,,,,,,,,,,,,,
,,,,,,,,,,,,,,,WWA57,001,WWA57,2024-02-14_11h05.46.242,Trial go no go,2020.2.10,MacIntel,60,,,,space,1,0.4771,0,15,15,20,1,X,space,,,,,,,,,,,,,,
,,,,,,,,,,,,,,,WWA57,001,WWA57,2024-02-14_11h05.46.242,Trial go no go,2020.2.10,MacIntel,60,,,,space,1,0.3841,0,16,16,21,1,X,space,,,,,,,,,,,,,,
,,,,,,,,,,,,,,,WWA57,001,WWA57,2024-02-14_11h05.46.242,Trial go no go,2020.2.10,MacIntel,60,,,,space,1,0.3029,0,17,17,23,1,X,space,,,,,,,,,,,,,,
,,,,,,,,,,,,,,,WWA57,001,WWA57,2024-02-14_11h05.46.242,Trial go no go,2020.2.10,MacIntel,60,,,,space,1,0.3072,0,18,18,37,1,X,space,,,,,,,,,,,,,,
,,,,,,,,,,,,,,,WWA57,001,WWA57,2024-02-14_11h05.46.242,Trial go no go,2020.2.10,MacIntel,60,,,,,1,,0,19,19,24,1,H,none,,,,,,,,,,,,,,
,,,,,,,,,,,,,,,WWA57,001,WWA57,2024-02-14_11h05.46.242,Trial go no go,2020.2.10,MacIntel,60,,,,space,1,0.3489,0,20,20,31,1,X,space,,,,,,,,,,,,,,
,,,,,,,,,,,,,,,WWA57,001,WWA57,2024-02-14_11h05.46.242,Trial go no go,2020.2.10,MacIntel,60,,,,space,1,0.3768,0,21,21,25,1,X,space,,,,,,,,,,,,,,
,,,,,,,,,,,,,,,WWA57,001,WWA57,2024-02-14_11h05.46.242,Trial go no go,2020.2.10,MacIntel,60,,,,space,1,0.3866,0,22,22,15,1,X,space,,,,,,,,,,,,,,
,,,,,,,,,,,,,,,WWA57,001,WWA57,2024-02-14_11h05.46.242,Trial go no go,2020.2.10,MacIntel,60,,,,space,1,0.3884,0,23,23,3,1,X,space,,,,,,,,,,,,,,
,,,,,,,,,,,,,,,WWA57,001,WWA57,2024-02-14_11h05.46.242,Trial go no go,2020.2.10,MacIntel,60,,,,space,1,0.4751,0,24,24,7,1,X,space,,,,,,,,,,,,,,
,,,,,,,,,,,,,,,WWA57,001,WWA57,2024-02-14_11h05.46.242,Trial go no go,2020.2.10,MacIntel,60,,,,,1,,0,25,25,4,1,V,none,,,,,,,,,,,,,,
,,,,,,,,,,,,,,,WWA57,001,WWA57,2024-02-14_11h05.46.242,Trial go no go,2020.2.10,MacIntel,60,,,,space,1,0.3217,0,26,26,43,1,X,space,,,,,,,,,,,,,,
,,,,,,,,,,,,,,,WWA57,001,WWA57,2024-02-14_11h05.46.242,Trial go no go,2020.2.10,MacIntel,60,,,,space,1,0.3611,0,27,27,35,1,X,space,,,,,,,,,,,,,,
,,,,,,,,,,,,,,,WWA57,001,WWA57,2024-02-14_11h05.46.242,Trial go no go,2020.2.10,MacIntel,60,,,,space,1,0.3322,0,28,28,27,1,X,space,,,,,,,,,,,,,,
,,,,,,,,,,,,,,,WWA57,001,WWA57,2024-02-14_11h05.46.242,Trial go no go,2020.2.10,MacIntel,60,,,,space,1,0.2961,0,29,29,0,1,X,space,,,,,,,,,,,,,,
,,,,,,,,,,,,,,,WWA57,001,WWA57,2024-02-14_11h05.46.242,Trial go no go,2020.2.10,MacIntel,60,,,,space,1,0.3539,0,30,30,17,1,X,space,,,,,,,,,,,,,,
,,,,,,,,,,,,,,,WWA57,001,WWA57,2024-02-14_11h05.46.242,Trial go no go,2020.2.10,MacIntel,60,,,,space,1,0.3363,0,31,31,41,1,X,space,,,,,,,,,,,,,,
,,,,,,,,,,,,,,,WWA57,001,WWA57,2024-02-14_11h05.46.242,Trial go no go,2020.2.10,MacIntel,60,,,,space,1,0.3379,0,32,32,22,1,X,space,,,,,,,,,,,,,,
,,,,,,,,,,,,,,,WWA57,001,WWA57,2024-02-14_11h05.46.242,Trial go no go,2020.2.10,MacIntel,60,,,,space,1,0.2924,0,33,33,32,1,X,space,,,,,,,,,,,,,,
,,,,,,,,,,,,,,,WWA57,001,WWA57,2024-02-14_11h05.46.242,Trial go no go,2020.2.10,MacIntel,60,,,,space,1,0.3494,0,34,34,18,1,X,space,,,,,,,,,,,,,,
,,,,,,,,,,,,,,,WWA57,001,WWA57,2024-02-14_11h05.46.242,Trial go no go,2020.2.10,MacIntel,60,,,,,1,,0,35,35,44,1,F,none,,,,,,,,,,,,,,
,,,,,,,,,,,,,,,WWA57,001,WWA57,2024-02-14_11h05.46.242,Trial go no go,2020.2.10,MacIntel,60,,,,space,1,0.3069,0,36,36,8,1,X,space,,,,,,,,,,,,,,
,,,,,,,,,,,,,,,WWA57,001,WWA57,2024-02-14_11h05.46.242,Trial go no go,2020.2.10,MacIntel,60,,,,space,1,0.3423,0,37,37,5,1,X,space,,,,,,,,,,,,,,
,,,,,,,,,,,,,,,WWA57,001,WWA57,2024-02-14_11h05.46.242,Trial go no go,2020.2.10,MacIntel,60,,,,space,1,0.3074,0,38,38,26,1,X,space,,,,,,,,,,,,,,
,,,,,,,,,,,,,,,WWA57,001,WWA57,2024-02-14_11h05.46.242,Trial go no go,2020.2.10,MacIntel,60,,,,,1,,0,39,39,39,1,M,none,,,,,,,,,,,,,,
,,,,,,,,,,,,,,,WWA57,001,WWA57,2024-02-14_11h05.46.242,Trial go no go,2020.2.10,MacIntel,60,,,,space,1,0.2567,0,40,40,48,1,X,space,,,,,,,,,,,,,,
,,,,,,,,,,,,,,,WWA57,001,WWA57,2024-02-14_11h05.46.242,Trial go no go,2020.2.10,MacIntel,60,,,,space,1,0.636,0,41,41,45,1,X,space,,,,,,,,,,,,,,
,,,,,,,,,,,,,,,WWA57,001,WWA57,2024-02-14_11h05.46.242,Trial go no go,2020.2.10,MacIntel,60,,,,space,1,0.2918,0,42,42,38,1,X,space,,,,,,,,,,,,,,
,,,,,,,,,,,,,,,WWA57,001,WWA57,2024-02-14_11h05.46.242,Trial go no go,2020.2.10,MacIntel,60,,,,space,1,0.3059,0,43,43,28,1,X,space,,,,,,,,,,,,,,
,,,,,,,,,,,,,,,WWA57,001,WWA57,2024-02-14_11h05.46.242,Trial go no go,2020.2.10,MacIntel,60,,,,space,1,0.2694,0,44,44,36,1,X,space,,,,,,,,,,,,,,
,,,,,,,,,,,,,,,WWA57,001,WWA57,2024-02-14_11h05.46.242,Trial go no go,2020.2.10,MacIntel,60,,,,,1,,0,45,45,19,1,K,none,,,,,,,,,,,,,,
,,,,,,,,,,,,,,,WWA57,001,WWA57,2024-02-14_11h05.46.242,Trial go no go,2020.2.10,MacIntel,60,,,,space,1,0.2736,0,46,46,13,1,X,space,,,,,,,,,,,,,,
,,,,,,,,,,,,,,,WWA57,001,WWA57,2024-02-14_11h05.46.242,Trial go no go,2020.2.10,MacIntel,60,,,,space,1,0.3021,0,47,47,6,1,X,space,,,,,,,,,,,,,,
,,,,,,,,,,,,,,,WWA57,001,WWA57,2024-02-14_11h05.46.242,Trial go no go,2020.2.10,MacIntel,60,,,,space,1,0.3341,0,48,48,2,1,X,space,,,,,,,,,,,,,,
,,,,,,,,,,,,,,,WWA57,001,WWA57,2024-02-14_11h05.46.242,Trial go no go,2020.2.10,MacIntel,60,,,,,1,,0,49,49,9,1,W,none,,,,,,,,,,,,,,
,,,,,,,,,,,,,,,WWA57,001,WWA57,2024-02-14_11h05.46.242,Trial go no go,2020.2.10,MacIntel,60,,,,,,,,,,,,,,z,16.4039,,1,0,0,0,14,1,X,none,,,
,,,,,,,,,,,,,,,WWA57,001,WWA57,2024-02-14_11h05.46.242,Trial go no go,2020.2.10,MacIntel,60,,,,,,,,,,,,,,,,,1,0,1,1,29,1,X,none,,,
,,,,,,,,,,,,,,,WWA57,001,WWA57,2024-02-14_11h05.46.242,Trial go no go,2020.2.10,MacIntel,60,,,,,,,,,,,,,,,,space,1,0,2,2,42,1,Y,space,0.404,,
,,,,,,,,,,,,,,,WWA57,001,WWA57,2024-02-14_11h05.46.242,Trial go no go,2020.2.10,MacIntel,60,,,,,,,,,,,,,,,,space,1,0,3,3,16,1,N,space,0.4661,,
,,,,,,,,,,,,,,,WWA57,001,WWA57,2024-02-14_11h05.46.242,Trial go no go,2020.2.10,MacIntel,60,,,,,,,,,,,,,,,,space,1,0,4,4,38,1,E,space,0.3494,,
,,,,,,,,,,,,,,,WWA57,001,WWA57,2024-02-14_11h05.46.242,Trial go no go,2020.2.10,MacIntel,60,,,,,,,,,,,,,,,,space,1,0,5,5,35,1,N,space,0.3653,,
,,,,,,,,,,,,,,,WWA57,001,WWA57,2024-02-14_11h05.46.242,Trial go no go,2020.2.10,MacIntel,60,,,,,,,,,,,,,,,,space,1,0,6,6,31,1,L,space,0.3141,,
,,,,,,,,,,,,,,,WWA57,001,WWA57,2024-02-14_11h05.46.242,Trial go no go,2020.2.10,MacIntel,60,,,,,,,,,,,,,,,,space,1,0,7,7,36,1,M,space,0.3335,,
,,,,,,,,,,,,,,,WWA57,001,WWA57,2024-02-14_11h05.46.242,Trial go no go,2020.2.10,MacIntel,60,,,,,,,,,,,,,,,,space,1,0,8,8,28,1,H,space,0.2752,,
,,,,,,,,,,,,,,,WWA57,001,WWA57,2024-02-14_11h05.46.242,Trial go no go,2020.2.10,MacIntel,60,,,,,,,,,,,,,,,,space,1,0,9,9,32,1,Z,space,0.3147,,
,,,,,,,,,,,,,,,WWA57,001,WWA57,2024-02-14_11h05.46.242,Trial go no go,2020.2.10,MacIntel,60,,,,,,,,,,,,,,,,space,1,0,10,10,2,1,R,space,0.3639,,
,,,,,,,,,,,,,,,WWA57,001,WWA57,2024-02-14_11h05.46.242,Trial go no go,2020.2.10,MacIntel,60,,,,,,,,,,,,,,,,space,0,0,11,11,24,1,X,none,0.2402,,
,,,,,,,,,,,,,,,WWA57,001,WWA57,2024-02-14_11h05.46.242,Trial go no go,2020.2.10,MacIntel,60,,,,,,,,,,,,,,,,,1,0,12,12,4,1,X,none,,,
,,,,,,,,,,,,,,,WWA57,001,WWA57,2024-02-14_11h05.46.242,Trial go no go,2020.2.10,MacIntel,60,,,,,,,,,,,,,,,,,1,0,13,13,39,1,X,none,,,
,,,,,,,,,,,,,,,WWA57,001,WWA57,2024-02-14_11h05.46.242,Trial go no go,2020.2.10,MacIntel,60,,,,,,,,,,,,,,,,space,1,0,14,14,7,1,A,space,0.3576,,
,,,,,,,,,,,,,,,WWA57,001,WWA57,2024-02-14_11h05.46.242,Trial go no go,2020.2.10,MacIntel,60,,,,,,,,,,,,,,,,space,1,0,15,15,41,1,T,space,0.4553,,
,,,,,,,,,,,,,,,WWA57,001,WWA57,2024-02-14_11h05.46.242,Trial go no go,2020.2.10,MacIntel,60,,,,,,,,,,,,,,,,space,1,0,16,16,47,1,H,space,0.3182,,
,,,,,,,,,,,,,,,WWA57,001,WWA57,2024-02-14_11h05.46.242,Trial go no go,2020.2.10,MacIntel,60,,,,,,,,,,,,,,,,space,1,0,17,17,12,1,L,space,0.3512,,
,,,,,,,,,,,,,,,WWA57,001,WWA57,2024-02-14_11h05.46.242,Trial go no go,2020.2.10,MacIntel,60,,,,,,,,,,,,,,,,space,1,0,18,18,25,1,I,space,0.3654,,
,,,,,,,,,,,,,,,WWA57,001,WWA57,2024-02-14_11h05.46.242,Trial go no go,2020.2.10,MacIntel,60,,,,,,,,,,,,,,,,space,1,0,19,19,6,1,I,space,0.3596,,
,,,,,,,,,,,,,,,WWA57,001,WWA57,2024-02-14_11h05.46.242,Trial go no go,2020.2.10,MacIntel,60,,,,,,,,,,,,,,,,space,1,0,20,20,27,1,F,space,0.3571,,
,,,,,,,,,,,,,,,WWA57,001,WWA57,2024-02-14_11h05.46.242,Trial go no go,2020.2.10,MacIntel,60,,,,,,,,,,,,,,,,space,1,0,21,21,20,1,E,space,0.3192,,
,,,,,,,,,,,,,,,WWA57,001,WWA57,2024-02-14_11h05.46.242,Trial go no go,2020.2.10,MacIntel,60,,,,,,,,,,,,,,,,space,1,0,22,22,11,1,K,space,0.2921,,
,,,,,,,,,,,,,,,WWA57,001,WWA57,2024-02-14_11h05.46.242,Trial go no go,2020.2.10,MacIntel,60,,,,,,,,,,,,,,,,space,1,0,23,23,43,1,I,space,0.2387,,
,,,,,,,,,,,,,,,WWA57,001,WWA57,2024-02-14_11h05.46.242,Trial go no go,2020.2.10,MacIntel,60,,,,,,,,,,,,,,,,space,1,0,24,24,33,1,V,space,0.3071,,
,,,,,,,,,,,,,,,WWA57,001,WWA57,2024-02-14_11h05.46.242,Trial go no go,2020.2.10,MacIntel,60,,,,,,,,,,,,,,,,space,1,0,25,25,46,1,F,space,0.32,,
,,,,,,,,,,,,,,,WWA57,001,WWA57,2024-02-14_11h05.46.242,Trial go no go,2020.2.10,MacIntel,60,,,,,,,,,,,,,,,,space,1,0,26,26,45,1,A,space,0.3518,,
,,,,,,,,,,,,,,,WWA57,001,WWA57,2024-02-14_11h05.46.242,Trial go no go,2020.2.10,MacIntel,60,,,,,,,,,,,,,,,,space,0,0,27,27,9,1,X,none,0.2664,,
,,,,,,,,,,,,,,,WWA57,001,WWA57,2024-02-14_11h05.46.242,Trial go no go,2020.2.10,MacIntel,60,,,,,,,,,,,,,,,,space,1,0,28,28,30,1,K,space,0.3843,,
,,,,,,,,,,,,,,,WWA57,001,WWA57,2024-02-14_11h05.46.242,Trial go no go,2020.2.10,MacIntel,60,,,,,,,,,,,,,,,,space,1,0,29,29,22,1,T,space,0.306,,
,,,,,,,,,,,,,,,WWA57,001,WWA57,2024-02-14_11h05.46.242,Trial go no go,2020.2.10,MacIntel,60,,,,,,,,,,,,,,,,space,1,0,30,30,40,1,R,space,0.2675,,
,,,,,,,,,,,,,,,WWA57,001,WWA57,2024-02-14_11h05.46.242,Trial go no go,2020.2.10,MacIntel,60,,,,,,,,,,,,,,,,space,1,0,31,31,8,1,F,space,0.2684,,
,,,,,,,,,,,,,,,WWA57,001,WWA57,2024-02-14_11h05.46.242,Trial go no go,2020.2.10,MacIntel,60,,,,,,,,,,,,,,,,space,1,0,32,32,18,1,W,space,0.3056,,
,,,,,,,,,,,,,,,WWA57,001,WWA57,2024-02-14_11h05.46.242,Trial go no go,2020.2.10,MacIntel,60,,,,,,,,,,,,,,,,space,1,0,33,33,0,1,W,space,0.3177,,
,,,,,,,,,,,,,,,WWA57,001,WWA57,2024-02-14_11h05.46.242,Trial go no go,2020.2.10,MacIntel,60,,,,,,,,,,,,,,,,space,0,0,34,34,34,1,X,none,0.2811,,
,,,,,,,,,,,,,,,WWA57,001,WWA57,2024-02-14_11h05.46.242,Trial go no go,2020.2.10,MacIntel,60,,,,,,,,,,,,,,,,space,1,0,35,35,17,1,M,space,0.3594,,
,,,,,,,,,,,,,,,WWA57,001,WWA57,2024-02-14_11h05.46.242,Trial go no go,2020.2.10,MacIntel,60,,,,,,,,,,,,,,,,space,1,0,36,36,3,1,T,space,0.265,,
,,,,,,,,,,,,,,,WWA57,001,WWA57,2024-02-14_11h05.46.242,Trial go no go,2020.2.10,MacIntel,60,,,,,,,,,,,,,,,,space,1,0,37,37,26,1,A,space,0.2872,,
,,,,,,,,,,,,,,,WWA57,001,WWA57,2024-02-14_11h05.46.242,Trial go no go,2020.2.10,MacIntel,60,,,,,,,,,,,,,,,,space,1,0,38,38,10,1,H,space,0.2661,,
,,,,,,,,,,,,,,,WWA57,001,WWA57,2024-02-14_11h05.46.242,Trial go no go,2020.2.10,MacIntel,60,,,,,,,,,,,,,,,,space,1,0,39,39,13,1,Z,space,0.2667,,
,,,,,,,,,,,,,,,WWA57,001,WWA57,2024-02-14_11h05.46.242,Trial go no go,2020.2.10,MacIntel,60,,,,,,,,,,,,,,,,,1,0,40,40,19,1,X,none,,,
,,,,,,,,,,,,,,,WWA57,001,WWA57,2024-02-14_11h05.46.242,Trial go no go,2020.2.10,MacIntel,60,,,,,,,,,,,,,,,,space,1,0,41,41,37,1,W,space,0.3522,,
,,,,,,,,,,,,,,,WWA57,001,WWA57,2024-02-14_11h05.46.242,Trial go no go,2020.2.10,MacIntel,60,,,,,,,,,,,,,,,,space,1,0,42,42,48,1,K,space,0.3507,,
,,,,,,,,,,,,,,,WWA57,001,WWA57,2024-02-14_11h05.46.242,Trial go no go,2020.2.10,MacIntel,60,,,,,,,,,,,,,,,,space,1,0,43,43,5,1,Y,space,0.27,,
,,,,,,,,,,,,,,,WWA57,001,WWA57,2024-02-14_11h05.46.242,Trial go no go,2020.2.10,MacIntel,60,,,,,,,,,,,,,,,,space,1,0,44,44,1,1,E,space,0.3166,,
,,,,,,,,,,,,,,,WWA57,001,WWA57,2024-02-14_11h05.46.242,Trial go no go,2020.2.10,MacIntel,60,,,,,,,,,,,,,,,,space,0,0,45,45,49,1,X,none,0.3355,,
,,,,,,,,,,,,,,,WWA57,001,WWA57,2024-02-14_11h05.46.242,Trial go no go,2020.2.10,MacIntel,60,,,,,,,,,,,,,,,,space,1,0,46,46,15,1,V,space,0.6816,,
,,,,,,,,,,,,,,,WWA57,001,WWA57,2024-02-14_11h05.46.242,Trial go no go,2020.2.10,MacIntel,60,,,,,,,,,,,,,,,,space,1,0,47,47,21,1,R,space,0.3476,,
,,,,,,,,,,,,,,,WWA57,001,WWA57,2024-02-14_11h05.46.242,Trial go no go,2020.2.10,MacIntel,60,,,,,,,,,,,,,,,,space,0,0,48,48,44,1,X,none,0.2644,,
,,,,,,,,,,,,,,,WWA57,001,WWA57,2024-02-14_11h05.46.242,Trial go no go,2020.2.10,MacIntel,60,,,,,,,,,,,,,,,,space,1,0,49,49,23,1,Y,space,0.4679,,
,,,,,,,,,,,,,,,WWA57,001,WWA57,2024-02-14_11h05.46.242,Trial go no go,2020.2.10,MacIntel,60,,,,,,,,,,,,,,,,,,,,,,,,,,space,17.8059
