resp_Welcome.keys,resp_Welcome.rt,resp_Instr_Intro.keys,resp_Instr_Intro.rt,resp_Instr_Prac1.keys,resp_Instr_Prac1.rt,resp_trial_Prac1.keys,resp_trial_Prac1.corr,prac_trials.thisRepN,prac_trials.thisTrialN,prac_trials.thisN,prac_trials.thisIndex,prac_trials.ran,stimulus_prac1,corrAns_prac1,participant,session,indywidualny kod,date,expName,psychopyVersion,OS,frameRate,resp_trial_Prac1.rt,resp_Instr_Test1.keys,resp_Instr_Test1.rt,resp_trial_Test1.keys,resp_trial_Test1.corr,test1trial.thisRepN,test1trial.thisTrialN,test1trial.thisN,test1trial.thisIndex,test1trial.ran,stimulus_test1,corrAns_test1,resp_trial_Test1.rt,resp_Instr_Test2.keys,resp_Instr_Test2.rt,key_resp_Test2.keys,key_resp_Test2.corr,test2trial.thisRepN,test2trial.thisTrialN,test2trial.thisN,test2trial.thisIndex,test2trial.ran,stimulus_test2,corrAns_test2,resp_theEnd.keys,resp_theEnd.rt
space,31.0718,space,20.5471,space,5.8105,,0,0,0,0,2,1,X,space,WWA85,001,WWA85,2023-12-19_10h41.51.236,Trial go no go,2020.2.10,MacIntel,60,,,,,,,,,,,,,,,,,,,,,,,,,,
,,,,,,space,1,0,1,1,7,1,X,space,WWA85,001,WWA85,2023-12-19_10h41.51.236,Trial go no go,2020.2.10,MacIntel,60,0.5059,,,,,,,,,,,,,,,,,,,,,,,,,
,,,,,,space,1,0,2,2,12,1,X,space,WWA85,001,WWA85,2023-12-19_10h41.51.236,Trial go no go,2020.2.10,MacIntel,60,0.3743,,,,,,,,,,,,,,,,,,,,,,,,,
,,,,,,space,1,0,3,3,5,1,X,space,WWA85,001,WWA85,2023-12-19_10h41.51.236,Trial go no go,2020.2.10,MacIntel,60,0.3871,,,,,,,,,,,,,,,,,,,,,,,,,
,,,,,,space,1,0,4,4,10,1,X,space,WWA85,001,WWA85,2023-12-19_10h41.51.236,Trial go no go,2020.2.10,MacIntel,60,0.3927,,,,,,,,,,,,,,,,,,,,,,,,,
,,,,,,,1,0,5,5,14,1,K,none,WWA85,001,WWA85,2023-12-19_10h41.51.236,Trial go no go,2020.2.10,MacIntel,60,,,,,,,,,,,,,,,,,,,,,,,,,,
,,,,,,space,1,0,6,6,1,1,X,space,WWA85,001,WWA85,2023-12-19_10h41.51.236,Trial go no go,2020.2.10,MacIntel,60,0.3918,,,,,,,,,,,,,,,,,,,,,,,,,
,,,,,,space,1,0,7,7,6,1,X,space,WWA85,001,WWA85,2023-12-19_10h41.51.236,Trial go no go,2020.2.10,MacIntel,60,0.5541,,,,,,,,,,,,,,,,,,,,,,,,,
,,,,,,space,1,0,8,8,3,1,X,space,WWA85,001,WWA85,2023-12-19_10h41.51.236,Trial go no go,2020.2.10,MacIntel,60,0.3369,,,,,,,,,,,,,,,,,,,,,,,,,
,,,,,,,1,0,9,9,9,1,V,none,WWA85,001,WWA85,2023-12-19_10h41.51.236,Trial go no go,2020.2.10,MacIntel,60,,,,,,,,,,,,,,,,,,,,,,,,,,
,,,,,,space,1,0,10,10,11,1,X,space,WWA85,001,WWA85,2023-12-19_10h41.51.236,Trial go no go,2020.2.10,MacIntel,60,0.3344,,,,,,,,,,,,,,,,,,,,,,,,,
,,,,,,space,1,0,11,11,8,1,X,space,WWA85,001,WWA85,2023-12-19_10h41.51.236,Trial go no go,2020.2.10,MacIntel,60,0.4071,,,,,,,,,,,,,,,,,,,,,,,,,
,,,,,,,1,0,12,12,4,1,W,none,WWA85,001,WWA85,2023-12-19_10h41.51.236,Trial go no go,2020.2.10,MacIntel,60,,,,,,,,,,,,,,,,,,,,,,,,,,
,,,,,,space,1,0,13,13,13,1,X,space,WWA85,001,WWA85,2023-12-19_10h41.51.236,Trial go no go,2020.2.10,MacIntel,60,0.3481,,,,,,,,,,,,,,,,,,,,,,,,,
,,,,,,space,1,0,14,14,0,1,X,space,WWA85,001,WWA85,2023-12-19_10h41.51.236,Trial go no go,2020.2.10,MacIntel,60,0.419,,,,,,,,,,,,,,,,,,,,,,,,,
,,,,,,,,,,,,,,,WWA85,001,WWA85,2023-12-19_10h41.51.236,Trial go no go,2020.2.10,MacIntel,60,,space,7.7569,,1,0,0,0,34,1,N,none,,,,,,,,,,,,,,
,,,,,,,,,,,,,,,WWA85,001,WWA85,2023-12-19_10h41.51.236,Trial go no go,2020.2.10,MacIntel,60,,,,space,1,0,1,1,22,1,X,space,0.416,,,,,,,,,,,,,
,,,,,,,,,,,,,,,WWA85,001,WWA85,2023-12-19_10h41.51.236,Trial go no go,2020.2.10,MacIntel,60,,,,space,1,0,2,2,27,1,X,space,0.4574,,,,,,,,,,,,,
,,,,,,,,,,,,,,,WWA85,001,WWA85,2023-12-19_10h41.51.236,Trial go no go,2020.2.10,MacIntel,60,,,,,1,0,3,3,9,1,W,none,,,,,,,,,,,,,,
,,,,,,,,,,,,,,,WWA85,001,WWA85,2023-12-19_10h41.51.236,Trial go no go,2020.2.10,MacIntel,60,,,,space,0,0,4,4,14,1,Y,none,0.2939,,,,,,,,,,,,,
,,,,,,,,,,,,,,,WWA85,001,WWA85,2023-12-19_10h41.51.236,Trial go no go,2020.2.10,MacIntel,60,,,,,1,0,5,5,44,1,F,none,,,,,,,,,,,,,,
,,,,,,,,,,,,,,,WWA85,001,WWA85,2023-12-19_10h41.51.236,Trial go no go,2020.2.10,MacIntel,60,,,,space,1,0,6,6,15,1,X,space,0.3335,,,,,,,,,,,,,
,,,,,,,,,,,,,,,WWA85,001,WWA85,2023-12-19_10h41.51.236,Trial go no go,2020.2.10,MacIntel,60,,,,space,1,0,7,7,12,1,X,space,0.3633,,,,,,,,,,,,,
,,,,,,,,,,,,,,,WWA85,001,WWA85,2023-12-19_10h41.51.236,Trial go no go,2020.2.10,MacIntel,60,,,,space,1,0,8,8,18,1,X,space,0.3207,,,,,,,,,,,,,
,,,,,,,,,,,,,,,WWA85,001,WWA85,2023-12-19_10h41.51.236,Trial go no go,2020.2.10,MacIntel,60,,,,space,1,0,9,9,3,1,X,space,0.32,,,,,,,,,,,,,
,,,,,,,,,,,,,,,WWA85,001,WWA85,2023-12-19_10h41.51.236,Trial go no go,2020.2.10,MacIntel,60,,,,space,1,0,10,10,8,1,X,space,0.271,,,,,,,,,,,,,
,,,,,,,,,,,,,,,WWA85,001,WWA85,2023-12-19_10h41.51.236,Trial go no go,2020.2.10,MacIntel,60,,,,space,1,0,11,11,13,1,X,space,0.2738,,,,,,,,,,,,,
,,,,,,,,,,,,,,,WWA85,001,WWA85,2023-12-19_10h41.51.236,Trial go no go,2020.2.10,MacIntel,60,,,,space,1,0,12,12,37,1,X,space,0.3038,,,,,,,,,,,,,
,,,,,,,,,,,,,,,WWA85,001,WWA85,2023-12-19_10h41.51.236,Trial go no go,2020.2.10,MacIntel,60,,,,,1,0,13,13,4,1,V,none,,,,,,,,,,,,,,
,,,,,,,,,,,,,,,WWA85,001,WWA85,2023-12-19_10h41.51.236,Trial go no go,2020.2.10,MacIntel,60,,,,space,1,0,14,14,48,1,X,space,0.3028,,,,,,,,,,,,,
,,,,,,,,,,,,,,,WWA85,001,WWA85,2023-12-19_10h41.51.236,Trial go no go,2020.2.10,MacIntel,60,,,,space,1,0,15,15,5,1,X,space,0.2677,,,,,,,,,,,,,
,,,,,,,,,,,,,,,WWA85,001,WWA85,2023-12-19_10h41.51.236,Trial go no go,2020.2.10,MacIntel,60,,,,space,1,0,16,16,47,1,X,space,0.3358,,,,,,,,,,,,,
,,,,,,,,,,,,,,,WWA85,001,WWA85,2023-12-19_10h41.51.236,Trial go no go,2020.2.10,MacIntel,60,,,,space,1,0,17,17,1,1,X,space,0.2842,,,,,,,,,,,,,
,,,,,,,,,,,,,,,WWA85,001,WWA85,2023-12-19_10h41.51.236,Trial go no go,2020.2.10,MacIntel,60,,,,,1,0,18,18,29,1,T,none,,,,,,,,,,,,,,
,,,,,,,,,,,,,,,WWA85,001,WWA85,2023-12-19_10h41.51.236,Trial go no go,2020.2.10,MacIntel,60,,,,space,1,0,19,19,41,1,X,space,0.2684,,,,,,,,,,,,,
,,,,,,,,,,,,,,,WWA85,001,WWA85,2023-12-19_10h41.51.236,Trial go no go,2020.2.10,MacIntel,60,,,,space,1,0,20,20,31,1,X,space,0.2543,,,,,,,,,,,,,
,,,,,,,,,,,,,,,WWA85,001,WWA85,2023-12-19_10h41.51.236,Trial go no go,2020.2.10,MacIntel,60,,,,space,1,0,21,21,46,1,X,space,0.2955,,,,,,,,,,,,,
,,,,,,,,,,,,,,,WWA85,001,WWA85,2023-12-19_10h41.51.236,Trial go no go,2020.2.10,MacIntel,60,,,,space,1,0,22,22,7,1,X,space,0.2725,,,,,,,,,,,,,
,,,,,,,,,,,,,,,WWA85,001,WWA85,2023-12-19_10h41.51.236,Trial go no go,2020.2.10,MacIntel,60,,,,space,1,0,23,23,23,1,X,space,0.2822,,,,,,,,,,,,,
,,,,,,,,,,,,,,,WWA85,001,WWA85,2023-12-19_10h41.51.236,Trial go no go,2020.2.10,MacIntel,60,,,,space,1,0,24,24,28,1,X,space,0.2731,,,,,,,,,,,,,
,,,,,,,,,,,,,,,WWA85,001,WWA85,2023-12-19_10h41.51.236,Trial go no go,2020.2.10,MacIntel,60,,,,space,1,0,25,25,10,1,X,space,0.3035,,,,,,,,,,,,,
,,,,,,,,,,,,,,,WWA85,001,WWA85,2023-12-19_10h41.51.236,Trial go no go,2020.2.10,MacIntel,60,,,,space,1,0,26,26,11,1,X,space,0.2495,,,,,,,,,,,,,
,,,,,,,,,,,,,,,WWA85,001,WWA85,2023-12-19_10h41.51.236,Trial go no go,2020.2.10,MacIntel,60,,,,space,1,0,27,27,17,1,X,space,0.2567,,,,,,,,,,,,,
,,,,,,,,,,,,,,,WWA85,001,WWA85,2023-12-19_10h41.51.236,Trial go no go,2020.2.10,MacIntel,60,,,,space,1,0,28,28,6,1,X,space,0.1907,,,,,,,,,,,,,
,,,,,,,,,,,,,,,WWA85,001,WWA85,2023-12-19_10h41.51.236,Trial go no go,2020.2.10,MacIntel,60,,,,space,0,0,29,29,24,1,H,none,0.2567,,,,,,,,,,,,,
,,,,,,,,,,,,,,,WWA85,001,WWA85,2023-12-19_10h41.51.236,Trial go no go,2020.2.10,MacIntel,60,,,,space,1,0,30,30,32,1,X,space,0.3348,,,,,,,,,,,,,
,,,,,,,,,,,,,,,WWA85,001,WWA85,2023-12-19_10h41.51.236,Trial go no go,2020.2.10,MacIntel,60,,,,,1,0,31,31,49,1,E,none,,,,,,,,,,,,,,
,,,,,,,,,,,,,,,WWA85,001,WWA85,2023-12-19_10h41.51.236,Trial go no go,2020.2.10,MacIntel,60,,,,space,1,0,32,32,25,1,X,space,0.3348,,,,,,,,,,,,,
,,,,,,,,,,,,,,,WWA85,001,WWA85,2023-12-19_10h41.51.236,Trial go no go,2020.2.10,MacIntel,60,,,,space,1,0,33,33,45,1,X,space,0.3238,,,,,,,,,,,,,
,,,,,,,,,,,,,,,WWA85,001,WWA85,2023-12-19_10h41.51.236,Trial go no go,2020.2.10,MacIntel,60,,,,space,1,0,34,34,38,1,X,space,0.3433,,,,,,,,,,,,,
,,,,,,,,,,,,,,,WWA85,001,WWA85,2023-12-19_10h41.51.236,Trial go no go,2020.2.10,MacIntel,60,,,,space,1,0,35,35,2,1,X,space,0.32,,,,,,,,,,,,,
,,,,,,,,,,,,,,,WWA85,001,WWA85,2023-12-19_10h41.51.236,Trial go no go,2020.2.10,MacIntel,60,,,,space,0,0,36,36,39,1,M,none,0.2665,,,,,,,,,,,,,
,,,,,,,,,,,,,,,WWA85,001,WWA85,2023-12-19_10h41.51.236,Trial go no go,2020.2.10,MacIntel,60,,,,space,1,0,37,37,43,1,X,space,0.402,,,,,,,,,,,,,
,,,,,,,,,,,,,,,WWA85,001,WWA85,2023-12-19_10h41.51.236,Trial go no go,2020.2.10,MacIntel,60,,,,,0,0,38,38,35,1,X,space,,,,,,,,,,,,,,
,,,,,,,,,,,,,,,WWA85,001,WWA85,2023-12-19_10h41.51.236,Trial go no go,2020.2.10,MacIntel,60,,,,space,1,0,39,39,42,1,X,space,0.162,,,,,,,,,,,,,
,,,,,,,,,,,,,,,WWA85,001,WWA85,2023-12-19_10h41.51.236,Trial go no go,2020.2.10,MacIntel,60,,,,space,0,0,40,40,19,1,K,none,0.2466,,,,,,,,,,,,,
,,,,,,,,,,,,,,,WWA85,001,WWA85,2023-12-19_10h41.51.236,Trial go no go,2020.2.10,MacIntel,60,,,,,0,0,41,41,16,1,X,space,,,,,,,,,,,,,,
,,,,,,,,,,,,,,,WWA85,001,WWA85,2023-12-19_10h41.51.236,Trial go no go,2020.2.10,MacIntel,60,,,,space,1,0,42,42,36,1,X,space,0.2941,,,,,,,,,,,,,
,,,,,,,,,,,,,,,WWA85,001,WWA85,2023-12-19_10h41.51.236,Trial go no go,2020.2.10,MacIntel,60,,,,space,1,0,43,43,30,1,X,space,0.2873,,,,,,,,,,,,,
,,,,,,,,,,,,,,,WWA85,001,WWA85,2023-12-19_10h41.51.236,Trial go no go,2020.2.10,MacIntel,60,,,,space,1,0,44,44,0,1,X,space,0.2886,,,,,,,,,,,,,
,,,,,,,,,,,,,,,WWA85,001,WWA85,2023-12-19_10h41.51.236,Trial go no go,2020.2.10,MacIntel,60,,,,space,1,0,45,45,26,1,X,space,0.2868,,,,,,,,,,,,,
,,,,,,,,,,,,,,,WWA85,001,WWA85,2023-12-19_10h41.51.236,Trial go no go,2020.2.10,MacIntel,60,,,,space,1,0,46,46,40,1,X,space,0.3181,,,,,,,,,,,,,
,,,,,,,,,,,,,,,WWA85,001,WWA85,2023-12-19_10h41.51.236,Trial go no go,2020.2.10,MacIntel,60,,,,space,1,0,47,47,21,1,X,space,0.3727,,,,,,,,,,,,,
,,,,,,,,,,,,,,,WWA85,001,WWA85,2023-12-19_10h41.51.236,Trial go no go,2020.2.10,MacIntel,60,,,,space,1,0,48,48,33,1,X,space,0.2705,,,,,,,,,,,,,
,,,,,,,,,,,,,,,WWA85,001,WWA85,2023-12-19_10h41.51.236,Trial go no go,2020.2.10,MacIntel,60,,,,space,1,0,49,49,20,1,X,space,0.2553,,,,,,,,,,,,,
,,,,,,,,,,,,,,,WWA85,001,WWA85,2023-12-19_10h41.51.236,Trial go no go,2020.2.10,MacIntel,60,,,,,,,,,,,,,,z,9.1982,,0,0,0,0,43,1,I,space,,
,,,,,,,,,,,,,,,WWA85,001,WWA85,2023-12-19_10h41.51.236,Trial go no go,2020.2.10,MacIntel,60,,,,,,,,,,,,,,,,,1,0,1,1,9,1,X,none,,
,,,,,,,,,,,,,,,WWA85,001,WWA85,2023-12-19_10h41.51.236,Trial go no go,2020.2.10,MacIntel,60,,,,,,,,,,,,,,,,,0,0,2,2,3,1,T,space,,
,,,,,,,,,,,,,,,WWA85,001,WWA85,2023-12-19_10h41.51.236,Trial go no go,2020.2.10,MacIntel,60,,,,,,,,,,,,,,,,,0,0,3,3,7,1,A,space,,
,,,,,,,,,,,,,,,WWA85,001,WWA85,2023-12-19_10h41.51.236,Trial go no go,2020.2.10,MacIntel,60,,,,,,,,,,,,,,,,,0,0,4,4,27,1,F,space,,
,,,,,,,,,,,,,,,WWA85,001,WWA85,2023-12-19_10h41.51.236,Trial go no go,2020.2.10,MacIntel,60,,,,,,,,,,,,,,,,,1,0,5,5,4,1,X,none,,
,,,,,,,,,,,,,,,WWA85,001,WWA85,2023-12-19_10h41.51.236,Trial go no go,2020.2.10,MacIntel,60,,,,,,,,,,,,,,,,,0,0,6,6,6,1,I,space,,
,,,,,,,,,,,,,,,WWA85,001,WWA85,2023-12-19_10h41.51.236,Trial go no go,2020.2.10,MacIntel,60,,,,,,,,,,,,,,,,,0,0,7,7,8,1,F,space,,
,,,,,,,,,,,,,,,WWA85,001,WWA85,2023-12-19_10h41.51.236,Trial go no go,2020.2.10,MacIntel,60,,,,,,,,,,,,,,,,,0,0,8,8,20,1,E,space,,
,,,,,,,,,,,,,,,WWA85,001,WWA85,2023-12-19_10h41.51.236,Trial go no go,2020.2.10,MacIntel,60,,,,,,,,,,,,,,,,,1,0,9,9,19,1,X,none,,
,,,,,,,,,,,,,,,WWA85,001,WWA85,2023-12-19_10h41.51.236,Trial go no go,2020.2.10,MacIntel,60,,,,,,,,,,,,,,,,,1,0,10,10,49,1,X,none,,
,,,,,,,,,,,,,,,WWA85,001,WWA85,2023-12-19_10h41.51.236,Trial go no go,2020.2.10,MacIntel,60,,,,,,,,,,,,,,,,,0,0,11,11,15,1,V,space,,
,,,,,,,,,,,,,,,WWA85,001,WWA85,2023-12-19_10h41.51.236,Trial go no go,2020.2.10,MacIntel,60,,,,,,,,,,,,,,,,,0,0,12,12,0,1,W,space,,
,,,,,,,,,,,,,,,WWA85,001,WWA85,2023-12-19_10h41.51.236,Trial go no go,2020.2.10,MacIntel,60,,,,,,,,,,,,,,,,,0,0,13,13,16,1,N,space,,
,,,,,,,,,,,,,,,WWA85,001,WWA85,2023-12-19_10h41.51.236,Trial go no go,2020.2.10,MacIntel,60,,,,,,,,,,,,,,,,,0,0,14,14,5,1,Y,space,,
,,,,,,,,,,,,,,,WWA85,001,WWA85,2023-12-19_10h41.51.236,Trial go no go,2020.2.10,MacIntel,60,,,,,,,,,,,,,,,,,0,0,15,15,13,1,Z,space,,
,,,,,,,,,,,,,,,WWA85,001,WWA85,2023-12-19_10h41.51.236,Trial go no go,2020.2.10,MacIntel,60,,,,,,,,,,,,,,,,,0,0,16,16,31,1,L,space,,
,,,,,,,,,,,,,,,WWA85,001,WWA85,2023-12-19_10h41.51.236,Trial go no go,2020.2.10,MacIntel,60,,,,,,,,,,,,,,,,,0,0,17,17,46,1,F,space,,
,,,,,,,,,,,,,,,WWA85,001,WWA85,2023-12-19_10h41.51.236,Trial go no go,2020.2.10,MacIntel,60,,,,,,,,,,,,,,,,,0,0,18,18,36,1,M,space,,
,,,,,,,,,,,,,,,WWA85,001,WWA85,2023-12-19_10h41.51.236,Trial go no go,2020.2.10,MacIntel,60,,,,,,,,,,,,,,,,,0,0,19,19,38,1,E,space,,
,,,,,,,,,,,,,,,WWA85,001,WWA85,2023-12-19_10h41.51.236,Trial go no go,2020.2.10,MacIntel,60,,,,,,,,,,,,,,,,,0,0,20,20,30,1,K,space,,
,,,,,,,,,,,,,,,WWA85,001,WWA85,2023-12-19_10h41.51.236,Trial go no go,2020.2.10,MacIntel,60,,,,,,,,,,,,,,,,,0,0,21,21,10,1,H,space,,
,,,,,,,,,,,,,,,WWA85,001,WWA85,2023-12-19_10h41.51.236,Trial go no go,2020.2.10,MacIntel,60,,,,,,,,,,,,,,,,,0,0,22,22,26,1,A,space,,
,,,,,,,,,,,,,,,WWA85,001,WWA85,2023-12-19_10h41.51.236,Trial go no go,2020.2.10,MacIntel,60,,,,,,,,,,,,,,,,,0,0,23,23,28,1,H,space,,
,,,,,,,,,,,,,,,WWA85,001,WWA85,2023-12-19_10h41.51.236,Trial go no go,2020.2.10,MacIntel,60,,,,,,,,,,,,,,,,,0,0,24,24,45,1,A,space,,
,,,,,,,,,,,,,,,WWA85,001,WWA85,2023-12-19_10h41.51.236,Trial go no go,2020.2.10,MacIntel,60,,,,,,,,,,,,,,,,,0,0,25,25,42,1,Y,space,,
,,,,,,,,,,,,,,,WWA85,001,WWA85,2023-12-19_10h41.51.236,Trial go no go,2020.2.10,MacIntel,60,,,,,,,,,,,,,,,,,0,0,26,26,41,1,T,space,,
,,,,,,,,,,,,,,,WWA85,001,WWA85,2023-12-19_10h41.51.236,Trial go no go,2020.2.10,MacIntel,60,,,,,,,,,,,,,,,,,0,0,27,27,37,1,W,space,,
,,,,,,,,,,,,,,,WWA85,001,WWA85,2023-12-19_10h41.51.236,Trial go no go,2020.2.10,MacIntel,60,,,,,,,,,,,,,,,,,0,0,28,28,1,1,E,space,,
,,,,,,,,,,,,,,,WWA85,001,WWA85,2023-12-19_10h41.51.236,Trial go no go,2020.2.10,MacIntel,60,,,,,,,,,,,,,,,,,0,0,29,29,47,1,H,space,,
,,,,,,,,,,,,,,,WWA85,001,WWA85,2023-12-19_10h41.51.236,Trial go no go,2020.2.10,MacIntel,60,,,,,,,,,,,,,,,,,0,0,30,30,32,1,Z,space,,
,,,,,,,,,,,,,,,WWA85,001,WWA85,2023-12-19_10h41.51.236,Trial go no go,2020.2.10,MacIntel,60,,,,,,,,,,,,,,,,,0,0,31,31,21,1,R,space,,
,,,,,,,,,,,,,,,WWA85,001,WWA85,2023-12-19_10h41.51.236,Trial go no go,2020.2.10,MacIntel,60,,,,,,,,,,,,,,,,,1,0,32,32,29,1,X,none,,
,,,,,,,,,,,,,,,WWA85,001,WWA85,2023-12-19_10h41.51.236,Trial go no go,2020.2.10,MacIntel,60,,,,,,,,,,,,,,,,,1,0,33,33,39,1,X,none,,
,,,,,,,,,,,,,,,WWA85,001,WWA85,2023-12-19_10h41.51.236,Trial go no go,2020.2.10,MacIntel,60,,,,,,,,,,,,,,,,,1,0,34,34,44,1,X,none,,
,,,,,,,,,,,,,,,WWA85,001,WWA85,2023-12-19_10h41.51.236,Trial go no go,2020.2.10,MacIntel,60,,,,,,,,,,,,,,,,,0,0,35,35,40,1,R,space,,
,,,,,,,,,,,,,,,WWA85,001,WWA85,2023-12-19_10h41.51.236,Trial go no go,2020.2.10,MacIntel,60,,,,,,,,,,,,,,,,,0,0,36,36,12,1,L,space,,
,,,,,,,,,,,,,,,WWA85,001,WWA85,2023-12-19_10h41.51.236,Trial go no go,2020.2.10,MacIntel,60,,,,,,,,,,,,,,,,,0,0,37,37,17,1,M,space,,
,,,,,,,,,,,,,,,WWA85,001,WWA85,2023-12-19_10h41.51.236,Trial go no go,2020.2.10,MacIntel,60,,,,,,,,,,,,,,,,,0,0,38,38,2,1,R,space,,
,,,,,,,,,,,,,,,WWA85,001,WWA85,2023-12-19_10h41.51.236,Trial go no go,2020.2.10,MacIntel,60,,,,,,,,,,,,,,,,,0,0,39,39,25,1,I,space,,
,,,,,,,,,,,,,,,WWA85,001,WWA85,2023-12-19_10h41.51.236,Trial go no go,2020.2.10,MacIntel,60,,,,,,,,,,,,,,,,,0,0,40,40,11,1,K,space,,
,,,,,,,,,,,,,,,WWA85,001,WWA85,2023-12-19_10h41.51.236,Trial go no go,2020.2.10,MacIntel,60,,,,,,,,,,,,,,,,,0,0,41,41,48,1,K,space,,
,,,,,,,,,,,,,,,WWA85,001,WWA85,2023-12-19_10h41.51.236,Trial go no go,2020.2.10,MacIntel,60,,,,,,,,,,,,,,,,,0,0,42,42,22,1,T,space,,
,,,,,,,,,,,,,,,WWA85,001,WWA85,2023-12-19_10h41.51.236,Trial go no go,2020.2.10,MacIntel,60,,,,,,,,,,,,,,,,,1,0,43,43,34,1,X,none,,
,,,,,,,,,,,,,,,WWA85,001,WWA85,2023-12-19_10h41.51.236,Trial go no go,2020.2.10,MacIntel,60,,,,,,,,,,,,,,,,,1,0,44,44,24,1,X,none,,
,,,,,,,,,,,,,,,WWA85,001,WWA85,2023-12-19_10h41.51.236,Trial go no go,2020.2.10,MacIntel,60,,,,,,,,,,,,,,,,,0,0,45,45,33,1,V,space,,
,,,,,,,,,,,,,,,WWA85,001,WWA85,2023-12-19_10h41.51.236,Trial go no go,2020.2.10,MacIntel,60,,,,,,,,,,,,,,,,,0,0,46,46,23,1,Y,space,,
,,,,,,,,,,,,,,,WWA85,001,WWA85,2023-12-19_10h41.51.236,Trial go no go,2020.2.10,MacIntel,60,,,,,,,,,,,,,,,,,1,0,47,47,14,1,X,none,,
,,,,,,,,,,,,,,,WWA85,001,WWA85,2023-12-19_10h41.51.236,Trial go no go,2020.2.10,MacIntel,60,,,,,,,,,,,,,,,,,0,0,48,48,18,1,W,space,,
,,,,,,,,,,,,,,,WWA85,001,WWA85,2023-12-19_10h41.51.236,Trial go no go,2020.2.10,MacIntel,60,,,,,,,,,,,,,,,,,0,0,49,49,35,1,N,space,,
,,,,,,,,,,,,,,,WWA85,001,WWA85,2023-12-19_10h41.51.236,Trial go no go,2020.2.10,MacIntel,60,,,,,,,,,,,,,,,,,,,,,,,,,space,12.0279
