resp_Welcome.keys,resp_Welcome.rt,resp_Instr_Intro.keys,resp_Instr_Intro.rt,resp_Instr_Prac1.keys,resp_Instr_Prac1.rt,resp_trial_Prac1.keys,resp_trial_Prac1.corr,resp_trial_Prac1.rt,prac_trials.thisRepN,prac_trials.thisTrialN,prac_trials.thisN,prac_trials.thisIndex,prac_trials.ran,stimulus_prac1,corrAns_prac1,participant,session,indywidualny kod,date,expName,psychopyVersion,OS,frameRate,resp_Instr_Test1.keys,resp_Instr_Test1.rt,resp_trial_Test1.keys,resp_trial_Test1.corr,resp_trial_Test1.rt,test1trial.thisRepN,test1trial.thisTrialN,test1trial.thisN,test1trial.thisIndex,test1trial.ran,stimulus_test1,corrAns_test1,resp_Instr_Test2.keys,resp_Instr_Test2.rt,key_resp_Test2.keys,key_resp_Test2.corr,key_resp_Test2.rt,test2trial.thisRepN,test2trial.thisTrialN,test2trial.thisN,test2trial.thisIndex,test2trial.ran,stimulus_test2,corrAns_test2,resp_theEnd.keys,resp_theEnd.rt
space,8.5827,space,32.7757,space,17.2106,space,1,0.4628,0,0,0,10,1,X,space,PUM09K,001,PUM09K,2024-01-30_08h44.35.063,Trial go no go,2020.2.10,Win32,60,,,,,,,,,,,,,,,,,,,,,,,,,,
,,,,,,space,1,0.4304,0,1,1,5,1,X,space,PUM09K,001,PUM09K,2024-01-30_08h44.35.063,Trial go no go,2020.2.10,Win32,60,,,,,,,,,,,,,,,,,,,,,,,,,,
,,,,,,,1,,0,2,2,14,1,K,none,PUM09K,001,PUM09K,2024-01-30_08h44.35.063,Trial go no go,2020.2.10,Win32,60,,,,,,,,,,,,,,,,,,,,,,,,,,
,,,,,,space,1,0.3369,0,3,3,7,1,X,space,PUM09K,001,PUM09K,2024-01-30_08h44.35.063,Trial go no go,2020.2.10,Win32,60,,,,,,,,,,,,,,,,,,,,,,,,,,
,,,,,,space,0,0.3693,0,4,4,4,1,W,none,PUM09K,001,PUM09K,2024-01-30_08h44.35.063,Trial go no go,2020.2.10,Win32,60,,,,,,,,,,,,,,,,,,,,,,,,,,
,,,,,,space,1,0.5911,0,5,5,8,1,X,space,PUM09K,001,PUM09K,2024-01-30_08h44.35.063,Trial go no go,2020.2.10,Win32,60,,,,,,,,,,,,,,,,,,,,,,,,,,
,,,,,,space,1,0.3905,0,6,6,1,1,X,space,PUM09K,001,PUM09K,2024-01-30_08h44.35.063,Trial go no go,2020.2.10,Win32,60,,,,,,,,,,,,,,,,,,,,,,,,,,
,,,,,,space,1,0.371,0,7,7,11,1,X,space,PUM09K,001,PUM09K,2024-01-30_08h44.35.063,Trial go no go,2020.2.10,Win32,60,,,,,,,,,,,,,,,,,,,,,,,,,,
,,,,,,space,1,0.5011,0,8,8,13,1,X,space,PUM09K,001,PUM09K,2024-01-30_08h44.35.063,Trial go no go,2020.2.10,Win32,60,,,,,,,,,,,,,,,,,,,,,,,,,,
,,,,,,space,1,0.4317,0,9,9,6,1,X,space,PUM09K,001,PUM09K,2024-01-30_08h44.35.063,Trial go no go,2020.2.10,Win32,60,,,,,,,,,,,,,,,,,,,,,,,,,,
,,,,,,space,1,0.4048,0,10,10,2,1,X,space,PUM09K,001,PUM09K,2024-01-30_08h44.35.063,Trial go no go,2020.2.10,Win32,60,,,,,,,,,,,,,,,,,,,,,,,,,,
,,,,,,space,1,0.3654,0,11,11,12,1,X,space,PUM09K,001,PUM09K,2024-01-30_08h44.35.063,Trial go no go,2020.2.10,Win32,60,,,,,,,,,,,,,,,,,,,,,,,,,,
,,,,,,space,1,0.4467,0,12,12,0,1,X,space,PUM09K,001,PUM09K,2024-01-30_08h44.35.063,Trial go no go,2020.2.10,Win32,60,,,,,,,,,,,,,,,,,,,,,,,,,,
,,,,,,,1,,0,13,13,9,1,V,none,PUM09K,001,PUM09K,2024-01-30_08h44.35.063,Trial go no go,2020.2.10,Win32,60,,,,,,,,,,,,,,,,,,,,,,,,,,
,,,,,,space,1,0.3331,0,14,14,3,1,X,space,PUM09K,001,PUM09K,2024-01-30_08h44.35.063,Trial go no go,2020.2.10,Win32,60,,,,,,,,,,,,,,,,,,,,,,,,,,
,,,,,,,,,,,,,,,,PUM09K,001,PUM09K,2024-01-30_08h44.35.063,Trial go no go,2020.2.10,Win32,60,space,5.9883,space,1,0.3869,0,0,0,33,1,X,space,,,,,,,,,,,,,,
,,,,,,,,,,,,,,,,PUM09K,001,PUM09K,2024-01-30_08h44.35.063,Trial go no go,2020.2.10,Win32,60,,,space,1,0.696,0,1,1,40,1,X,space,,,,,,,,,,,,,,
,,,,,,,,,,,,,,,,PUM09K,001,PUM09K,2024-01-30_08h44.35.063,Trial go no go,2020.2.10,Win32,60,,,space,1,0.258,0,2,2,2,1,X,space,,,,,,,,,,,,,,
,,,,,,,,,,,,,,,,PUM09K,001,PUM09K,2024-01-30_08h44.35.063,Trial go no go,2020.2.10,Win32,60,,,space,0,0.2303,0,3,3,14,1,Y,none,,,,,,,,,,,,,,
,,,,,,,,,,,,,,,,PUM09K,001,PUM09K,2024-01-30_08h44.35.063,Trial go no go,2020.2.10,Win32,60,,,space,1,0.3272,0,4,4,32,1,X,space,,,,,,,,,,,,,,
,,,,,,,,,,,,,,,,PUM09K,001,PUM09K,2024-01-30_08h44.35.063,Trial go no go,2020.2.10,Win32,60,,,space,1,0.3274,0,5,5,20,1,X,space,,,,,,,,,,,,,,
,,,,,,,,,,,,,,,,PUM09K,001,PUM09K,2024-01-30_08h44.35.063,Trial go no go,2020.2.10,Win32,60,,,,1,,0,6,6,9,1,W,none,,,,,,,,,,,,,,
,,,,,,,,,,,,,,,,PUM09K,001,PUM09K,2024-01-30_08h44.35.063,Trial go no go,2020.2.10,Win32,60,,,space,1,0.2367,0,7,7,35,1,X,space,,,,,,,,,,,,,,
,,,,,,,,,,,,,,,,PUM09K,001,PUM09K,2024-01-30_08h44.35.063,Trial go no go,2020.2.10,Win32,60,,,space,1,0.2648,0,8,8,30,1,X,space,,,,,,,,,,,,,,
,,,,,,,,,,,,,,,,PUM09K,001,PUM09K,2024-01-30_08h44.35.063,Trial go no go,2020.2.10,Win32,60,,,space,1,0.3064,0,9,9,21,1,X,space,,,,,,,,,,,,,,
,,,,,,,,,,,,,,,,PUM09K,001,PUM09K,2024-01-30_08h44.35.063,Trial go no go,2020.2.10,Win32,60,,,space,1,0.2466,0,10,10,15,1,X,space,,,,,,,,,,,,,,
,,,,,,,,,,,,,,,,PUM09K,001,PUM09K,2024-01-30_08h44.35.063,Trial go no go,2020.2.10,Win32,60,,,,1,,0,11,11,19,1,K,none,,,,,,,,,,,,,,
,,,,,,,,,,,,,,,,PUM09K,001,PUM09K,2024-01-30_08h44.35.063,Trial go no go,2020.2.10,Win32,60,,,space,1,0.3306,0,12,12,48,1,X,space,,,,,,,,,,,,,,
,,,,,,,,,,,,,,,,PUM09K,001,PUM09K,2024-01-30_08h44.35.063,Trial go no go,2020.2.10,Win32,60,,,space,1,0.363,0,13,13,27,1,X,space,,,,,,,,,,,,,,
,,,,,,,,,,,,,,,,PUM09K,001,PUM09K,2024-01-30_08h44.35.063,Trial go no go,2020.2.10,Win32,60,,,space,1,0.2043,0,14,14,17,1,X,space,,,,,,,,,,,,,,
,,,,,,,,,,,,,,,,PUM09K,001,PUM09K,2024-01-30_08h44.35.063,Trial go no go,2020.2.10,Win32,60,,,space,1,0.3722,0,15,15,10,1,X,space,,,,,,,,,,,,,,
,,,,,,,,,,,,,,,,PUM09K,001,PUM09K,2024-01-30_08h44.35.063,Trial go no go,2020.2.10,Win32,60,,,,1,,0,16,16,34,1,N,none,,,,,,,,,,,,,,
,,,,,,,,,,,,,,,,PUM09K,001,PUM09K,2024-01-30_08h44.35.063,Trial go no go,2020.2.10,Win32,60,,,space,1,0.2577,0,17,17,46,1,X,space,,,,,,,,,,,,,,
,,,,,,,,,,,,,,,,PUM09K,001,PUM09K,2024-01-30_08h44.35.063,Trial go no go,2020.2.10,Win32,60,,,space,1,0.253,0,18,18,41,1,X,space,,,,,,,,,,,,,,
,,,,,,,,,,,,,,,,PUM09K,001,PUM09K,2024-01-30_08h44.35.063,Trial go no go,2020.2.10,Win32,60,,,space,1,0.2302,0,19,19,42,1,X,space,,,,,,,,,,,,,,
,,,,,,,,,,,,,,,,PUM09K,001,PUM09K,2024-01-30_08h44.35.063,Trial go no go,2020.2.10,Win32,60,,,space,1,0.2652,0,20,20,43,1,X,space,,,,,,,,,,,,,,
,,,,,,,,,,,,,,,,PUM09K,001,PUM09K,2024-01-30_08h44.35.063,Trial go no go,2020.2.10,Win32,60,,,space,0,0.1888,0,21,21,29,1,T,none,,,,,,,,,,,,,,
,,,,,,,,,,,,,,,,PUM09K,001,PUM09K,2024-01-30_08h44.35.063,Trial go no go,2020.2.10,Win32,60,,,space,1,0.4123,0,22,22,8,1,X,space,,,,,,,,,,,,,,
,,,,,,,,,,,,,,,,PUM09K,001,PUM09K,2024-01-30_08h44.35.063,Trial go no go,2020.2.10,Win32,60,,,space,1,0.2582,0,23,23,12,1,X,space,,,,,,,,,,,,,,
,,,,,,,,,,,,,,,,PUM09K,001,PUM09K,2024-01-30_08h44.35.063,Trial go no go,2020.2.10,Win32,60,,,space,1,0.292,0,24,24,23,1,X,space,,,,,,,,,,,,,,
,,,,,,,,,,,,,,,,PUM09K,001,PUM09K,2024-01-30_08h44.35.063,Trial go no go,2020.2.10,Win32,60,,,,1,,0,25,25,4,1,V,none,,,,,,,,,,,,,,
,,,,,,,,,,,,,,,,PUM09K,001,PUM09K,2024-01-30_08h44.35.063,Trial go no go,2020.2.10,Win32,60,,,space,0,0.1957,0,26,26,44,1,F,none,,,,,,,,,,,,,,
,,,,,,,,,,,,,,,,PUM09K,001,PUM09K,2024-01-30_08h44.35.063,Trial go no go,2020.2.10,Win32,60,,,space,1,0.3771,0,27,27,18,1,X,space,,,,,,,,,,,,,,
,,,,,,,,,,,,,,,,PUM09K,001,PUM09K,2024-01-30_08h44.35.063,Trial go no go,2020.2.10,Win32,60,,,space,1,0.2792,0,28,28,5,1,X,space,,,,,,,,,,,,,,
,,,,,,,,,,,,,,,,PUM09K,001,PUM09K,2024-01-30_08h44.35.063,Trial go no go,2020.2.10,Win32,60,,,space,1,0.251,0,29,29,3,1,X,space,,,,,,,,,,,,,,
,,,,,,,,,,,,,,,,PUM09K,001,PUM09K,2024-01-30_08h44.35.063,Trial go no go,2020.2.10,Win32,60,,,space,1,0.2479,0,30,30,31,1,X,space,,,,,,,,,,,,,,
,,,,,,,,,,,,,,,,PUM09K,001,PUM09K,2024-01-30_08h44.35.063,Trial go no go,2020.2.10,Win32,60,,,space,1,0.2399,0,31,31,7,1,X,space,,,,,,,,,,,,,,
,,,,,,,,,,,,,,,,PUM09K,001,PUM09K,2024-01-30_08h44.35.063,Trial go no go,2020.2.10,Win32,60,,,space,0,0.1968,0,32,32,49,1,E,none,,,,,,,,,,,,,,
,,,,,,,,,,,,,,,,PUM09K,001,PUM09K,2024-01-30_08h44.35.063,Trial go no go,2020.2.10,Win32,60,,,,1,,0,33,33,39,1,M,none,,,,,,,,,,,,,,
,,,,,,,,,,,,,,,,PUM09K,001,PUM09K,2024-01-30_08h44.35.063,Trial go no go,2020.2.10,Win32,60,,,space,1,0.3015,0,34,34,6,1,X,space,,,,,,,,,,,,,,
,,,,,,,,,,,,,,,,PUM09K,001,PUM09K,2024-01-30_08h44.35.063,Trial go no go,2020.2.10,Win32,60,,,,1,,0,35,35,24,1,H,none,,,,,,,,,,,,,,
,,,,,,,,,,,,,,,,PUM09K,001,PUM09K,2024-01-30_08h44.35.063,Trial go no go,2020.2.10,Win32,60,,,space,1,0.3078,0,36,36,36,1,X,space,,,,,,,,,,,,,,
,,,,,,,,,,,,,,,,PUM09K,001,PUM09K,2024-01-30_08h44.35.063,Trial go no go,2020.2.10,Win32,60,,,space,1,0.2438,0,37,37,11,1,X,space,,,,,,,,,,,,,,
,,,,,,,,,,,,,,,,PUM09K,001,PUM09K,2024-01-30_08h44.35.063,Trial go no go,2020.2.10,Win32,60,,,space,1,0.3553,0,38,38,13,1,X,space,,,,,,,,,,,,,,
,,,,,,,,,,,,,,,,PUM09K,001,PUM09K,2024-01-30_08h44.35.063,Trial go no go,2020.2.10,Win32,60,,,space,1,0.2517,0,39,39,26,1,X,space,,,,,,,,,,,,,,
,,,,,,,,,,,,,,,,PUM09K,001,PUM09K,2024-01-30_08h44.35.063,Trial go no go,2020.2.10,Win32,60,,,space,1,0.1894,0,40,40,1,1,X,space,,,,,,,,,,,,,,
,,,,,,,,,,,,,,,,PUM09K,001,PUM09K,2024-01-30_08h44.35.063,Trial go no go,2020.2.10,Win32,60,,,space,1,0.1885,0,41,41,28,1,X,space,,,,,,,,,,,,,,
,,,,,,,,,,,,,,,,PUM09K,001,PUM09K,2024-01-30_08h44.35.063,Trial go no go,2020.2.10,Win32,60,,,space,1,0.3086,0,42,42,16,1,X,space,,,,,,,,,,,,,,
,,,,,,,,,,,,,,,,PUM09K,001,PUM09K,2024-01-30_08h44.35.063,Trial go no go,2020.2.10,Win32,60,,,space,1,0.2991,0,43,43,0,1,X,space,,,,,,,,,,,,,,
,,,,,,,,,,,,,,,,PUM09K,001,PUM09K,2024-01-30_08h44.35.063,Trial go no go,2020.2.10,Win32,60,,,space,1,0.2993,0,44,44,22,1,X,space,,,,,,,,,,,,,,
,,,,,,,,,,,,,,,,PUM09K,001,PUM09K,2024-01-30_08h44.35.063,Trial go no go,2020.2.10,Win32,60,,,space,1,0.2853,0,45,45,45,1,X,space,,,,,,,,,,,,,,
,,,,,,,,,,,,,,,,PUM09K,001,PUM09K,2024-01-30_08h44.35.063,Trial go no go,2020.2.10,Win32,60,,,space,1,0.2319,0,46,46,37,1,X,space,,,,,,,,,,,,,,
,,,,,,,,,,,,,,,,PUM09K,001,PUM09K,2024-01-30_08h44.35.063,Trial go no go,2020.2.10,Win32,60,,,space,1,0.234,0,47,47,38,1,X,space,,,,,,,,,,,,,,
,,,,,,,,,,,,,,,,PUM09K,001,PUM09K,2024-01-30_08h44.35.063,Trial go no go,2020.2.10,Win32,60,,,space,1,0.1611,0,48,48,25,1,X,space,,,,,,,,,,,,,,
,,,,,,,,,,,,,,,,PUM09K,001,PUM09K,2024-01-30_08h44.35.063,Trial go no go,2020.2.10,Win32,60,,,space,1,0.2095,0,49,49,47,1,X,space,,,,,,,,,,,,,,
,,,,,,,,,,,,,,,,PUM09K,001,PUM09K,2024-01-30_08h44.35.063,Trial go no go,2020.2.10,Win32,60,,,,,,,,,,,,,z,15.7665,space,1,0.5879,0,0,0,28,1,H,space,,
,,,,,,,,,,,,,,,,PUM09K,001,PUM09K,2024-01-30_08h44.35.063,Trial go no go,2020.2.10,Win32,60,,,,,,,,,,,,,,,space,1,0.2844,0,1,1,6,1,I,space,,
,,,,,,,,,,,,,,,,PUM09K,001,PUM09K,2024-01-30_08h44.35.063,Trial go no go,2020.2.10,Win32,60,,,,,,,,,,,,,,,space,1,0.4375,0,2,2,48,1,K,space,,
,,,,,,,,,,,,,,,,PUM09K,001,PUM09K,2024-01-30_08h44.35.063,Trial go no go,2020.2.10,Win32,60,,,,,,,,,,,,,,,space,1,0.2561,0,3,3,21,1,R,space,,
,,,,,,,,,,,,,,,,PUM09K,001,PUM09K,2024-01-30_08h44.35.063,Trial go no go,2020.2.10,Win32,60,,,,,,,,,,,,,,,space,1,0.2659,0,4,4,41,1,T,space,,
,,,,,,,,,,,,,,,,PUM09K,001,PUM09K,2024-01-30_08h44.35.063,Trial go no go,2020.2.10,Win32,60,,,,,,,,,,,,,,,space,1,0.229,0,5,5,38,1,E,space,,
,,,,,,,,,,,,,,,,PUM09K,001,PUM09K,2024-01-30_08h44.35.063,Trial go no go,2020.2.10,Win32,60,,,,,,,,,,,,,,,space,1,0.23,0,6,6,37,1,W,space,,
,,,,,,,,,,,,,,,,PUM09K,001,PUM09K,2024-01-30_08h44.35.063,Trial go no go,2020.2.10,Win32,60,,,,,,,,,,,,,,,space,1,0.3078,0,7,7,5,1,Y,space,,
,,,,,,,,,,,,,,,,PUM09K,001,PUM09K,2024-01-30_08h44.35.063,Trial go no go,2020.2.10,Win32,60,,,,,,,,,,,,,,,space,1,0.2559,0,8,8,1,1,E,space,,
,,,,,,,,,,,,,,,,PUM09K,001,PUM09K,2024-01-30_08h44.35.063,Trial go no go,2020.2.10,Win32,60,,,,,,,,,,,,,,,space,1,0.2217,0,9,9,42,1,Y,space,,
,,,,,,,,,,,,,,,,PUM09K,001,PUM09K,2024-01-30_08h44.35.063,Trial go no go,2020.2.10,Win32,60,,,,,,,,,,,,,,,space,1,0.2143,0,10,10,35,1,N,space,,
,,,,,,,,,,,,,,,,PUM09K,001,PUM09K,2024-01-30_08h44.35.063,Trial go no go,2020.2.10,Win32,60,,,,,,,,,,,,,,,space,1,0.1957,0,11,11,13,1,Z,space,,
,,,,,,,,,,,,,,,,PUM09K,001,PUM09K,2024-01-30_08h44.35.063,Trial go no go,2020.2.10,Win32,60,,,,,,,,,,,,,,,space,1,0.1126,0,12,12,36,1,M,space,,
,,,,,,,,,,,,,,,,PUM09K,001,PUM09K,2024-01-30_08h44.35.063,Trial go no go,2020.2.10,Win32,60,,,,,,,,,,,,,,,space,1,0.2208,0,13,13,26,1,A,space,,
,,,,,,,,,,,,,,,,PUM09K,001,PUM09K,2024-01-30_08h44.35.063,Trial go no go,2020.2.10,Win32,60,,,,,,,,,,,,,,,space,1,0.2839,0,14,14,2,1,R,space,,
,,,,,,,,,,,,,,,,PUM09K,001,PUM09K,2024-01-30_08h44.35.063,Trial go no go,2020.2.10,Win32,60,,,,,,,,,,,,,,,space,0,0.2101,0,15,15,29,1,X,none,,
,,,,,,,,,,,,,,,,PUM09K,001,PUM09K,2024-01-30_08h44.35.063,Trial go no go,2020.2.10,Win32,60,,,,,,,,,,,,,,,space,0,0.2388,0,16,16,34,1,X,none,,
,,,,,,,,,,,,,,,,PUM09K,001,PUM09K,2024-01-30_08h44.35.063,Trial go no go,2020.2.10,Win32,60,,,,,,,,,,,,,,,space,1,0.332,0,17,17,43,1,I,space,,
,,,,,,,,,,,,,,,,PUM09K,001,PUM09K,2024-01-30_08h44.35.063,Trial go no go,2020.2.10,Win32,60,,,,,,,,,,,,,,,space,0,0.2217,0,18,18,4,1,X,none,,
,,,,,,,,,,,,,,,,PUM09K,001,PUM09K,2024-01-30_08h44.35.063,Trial go no go,2020.2.10,Win32,60,,,,,,,,,,,,,,,space,1,0.3345,0,19,19,8,1,F,space,,
,,,,,,,,,,,,,,,,PUM09K,001,PUM09K,2024-01-30_08h44.35.063,Trial go no go,2020.2.10,Win32,60,,,,,,,,,,,,,,,space,1,0.395,0,20,20,25,1,I,space,,
,,,,,,,,,,,,,,,,PUM09K,001,PUM09K,2024-01-30_08h44.35.063,Trial go no go,2020.2.10,Win32,60,,,,,,,,,,,,,,,space,1,0.3597,0,21,21,15,1,V,space,,
,,,,,,,,,,,,,,,,PUM09K,001,PUM09K,2024-01-30_08h44.35.063,Trial go no go,2020.2.10,Win32,60,,,,,,,,,,,,,,,space,0,0.242,0,22,22,14,1,X,none,,
,,,,,,,,,,,,,,,,PUM09K,001,PUM09K,2024-01-30_08h44.35.063,Trial go no go,2020.2.10,Win32,60,,,,,,,,,,,,,,,space,1,0.2632,0,23,23,47,1,H,space,,
,,,,,,,,,,,,,,,,PUM09K,001,PUM09K,2024-01-30_08h44.35.063,Trial go no go,2020.2.10,Win32,60,,,,,,,,,,,,,,,space,1,0.2359,0,24,24,3,1,T,space,,
,,,,,,,,,,,,,,,,PUM09K,001,PUM09K,2024-01-30_08h44.35.063,Trial go no go,2020.2.10,Win32,60,,,,,,,,,,,,,,,space,1,0.214,0,25,25,20,1,E,space,,
,,,,,,,,,,,,,,,,PUM09K,001,PUM09K,2024-01-30_08h44.35.063,Trial go no go,2020.2.10,Win32,60,,,,,,,,,,,,,,,space,1,0.2078,0,26,26,23,1,Y,space,,
,,,,,,,,,,,,,,,,PUM09K,001,PUM09K,2024-01-30_08h44.35.063,Trial go no go,2020.2.10,Win32,60,,,,,,,,,,,,,,,space,1,0.2974,0,27,27,31,1,L,space,,
,,,,,,,,,,,,,,,,PUM09K,001,PUM09K,2024-01-30_08h44.35.063,Trial go no go,2020.2.10,Win32,60,,,,,,,,,,,,,,,space,1,0.2452,0,28,28,16,1,N,space,,
,,,,,,,,,,,,,,,,PUM09K,001,PUM09K,2024-01-30_08h44.35.063,Trial go no go,2020.2.10,Win32,60,,,,,,,,,,,,,,,space,1,0.2575,0,29,29,33,1,V,space,,
,,,,,,,,,,,,,,,,PUM09K,001,PUM09K,2024-01-30_08h44.35.063,Trial go no go,2020.2.10,Win32,60,,,,,,,,,,,,,,,,1,,0,30,30,24,1,X,none,,
,,,,,,,,,,,,,,,,PUM09K,001,PUM09K,2024-01-30_08h44.35.063,Trial go no go,2020.2.10,Win32,60,,,,,,,,,,,,,,,space,0,0.2233,0,31,31,44,1,X,none,,
,,,,,,,,,,,,,,,,PUM09K,001,PUM09K,2024-01-30_08h44.35.063,Trial go no go,2020.2.10,Win32,60,,,,,,,,,,,,,,,,1,,0,32,32,49,1,X,none,,
,,,,,,,,,,,,,,,,PUM09K,001,PUM09K,2024-01-30_08h44.35.063,Trial go no go,2020.2.10,Win32,60,,,,,,,,,,,,,,,space,1,0.3215,0,33,33,12,1,L,space,,
,,,,,,,,,,,,,,,,PUM09K,001,PUM09K,2024-01-30_08h44.35.063,Trial go no go,2020.2.10,Win32,60,,,,,,,,,,,,,,,space,1,0.2495,0,34,34,17,1,M,space,,
,,,,,,,,,,,,,,,,PUM09K,001,PUM09K,2024-01-30_08h44.35.063,Trial go no go,2020.2.10,Win32,60,,,,,,,,,,,,,,,,1,,0,35,35,9,1,X,none,,
,,,,,,,,,,,,,,,,PUM09K,001,PUM09K,2024-01-30_08h44.35.063,Trial go no go,2020.2.10,Win32,60,,,,,,,,,,,,,,,space,1,0.3745,0,36,36,46,1,F,space,,
,,,,,,,,,,,,,,,,PUM09K,001,PUM09K,2024-01-30_08h44.35.063,Trial go no go,2020.2.10,Win32,60,,,,,,,,,,,,,,,space,1,0.3279,0,37,37,27,1,F,space,,
,,,,,,,,,,,,,,,,PUM09K,001,PUM09K,2024-01-30_08h44.35.063,Trial go no go,2020.2.10,Win32,60,,,,,,,,,,,,,,,space,1,0.2485,0,38,38,10,1,H,space,,
,,,,,,,,,,,,,,,,PUM09K,001,PUM09K,2024-01-30_08h44.35.063,Trial go no go,2020.2.10,Win32,60,,,,,,,,,,,,,,,space,0,0.2422,0,39,39,19,1,X,none,,
,,,,,,,,,,,,,,,,PUM09K,001,PUM09K,2024-01-30_08h44.35.063,Trial go no go,2020.2.10,Win32,60,,,,,,,,,,,,,,,space,1,0.2584,0,40,40,7,1,A,space,,
,,,,,,,,,,,,,,,,PUM09K,001,PUM09K,2024-01-30_08h44.35.063,Trial go no go,2020.2.10,Win32,60,,,,,,,,,,,,,,,space,1,0.2364,0,41,41,11,1,K,space,,
,,,,,,,,,,,,,,,,PUM09K,001,PUM09K,2024-01-30_08h44.35.063,Trial go no go,2020.2.10,Win32,60,,,,,,,,,,,,,,,space,1,0.305,0,42,42,30,1,K,space,,
,,,,,,,,,,,,,,,,PUM09K,001,PUM09K,2024-01-30_08h44.35.063,Trial go no go,2020.2.10,Win32,60,,,,,,,,,,,,,,,space,1,0.2827,0,43,43,45,1,A,space,,
,,,,,,,,,,,,,,,,PUM09K,001,PUM09K,2024-01-30_08h44.35.063,Trial go no go,2020.2.10,Win32,60,,,,,,,,,,,,,,,space,0,0.2791,0,44,44,39,1,X,none,,
,,,,,,,,,,,,,,,,PUM09K,001,PUM09K,2024-01-30_08h44.35.063,Trial go no go,2020.2.10,Win32,60,,,,,,,,,,,,,,,space,1,0.2996,0,45,45,18,1,W,space,,
,,,,,,,,,,,,,,,,PUM09K,001,PUM09K,2024-01-30_08h44.35.063,Trial go no go,2020.2.10,Win32,60,,,,,,,,,,,,,,,space,1,0.2746,0,46,46,22,1,T,space,,
,,,,,,,,,,,,,,,,PUM09K,001,PUM09K,2024-01-30_08h44.35.063,Trial go no go,2020.2.10,Win32,60,,,,,,,,,,,,,,,space,1,0.2669,0,47,47,32,1,Z,space,,
,,,,,,,,,,,,,,,,PUM09K,001,PUM09K,2024-01-30_08h44.35.063,Trial go no go,2020.2.10,Win32,60,,,,,,,,,,,,,,,space,1,0.2583,0,48,48,0,1,W,space,,
,,,,,,,,,,,,,,,,PUM09K,001,PUM09K,2024-01-30_08h44.35.063,Trial go no go,2020.2.10,Win32,60,,,,,,,,,,,,,,,space,1,0.3134,0,49,49,40,1,R,space,,
,,,,,,,,,,,,,,,,PUM09K,001,PUM09K,2024-01-30_08h44.35.063,Trial go no go,2020.2.10,Win32,60,,,,,,,,,,,,,,,,,,,,,,,,,space,66.8503
