resp_Welcome.keys,resp_Welcome.rt,resp_Instr_Intro.keys,resp_Instr_Intro.rt,resp_Instr_Prac1.keys,resp_Instr_Prac1.rt,resp_trial_Prac1.keys,resp_trial_Prac1.corr,resp_trial_Prac1.rt,prac_trials.thisRepN,prac_trials.thisTrialN,prac_trials.thisN,prac_trials.thisIndex,prac_trials.ran,stimulus_prac1,corrAns_prac1,participant,session,indywidualny kod,date,expName,psychopyVersion,OS,frameRate,resp_Instr_Test1.keys,resp_Instr_Test1.rt,resp_trial_Test1.keys,resp_trial_Test1.corr,test1trial.thisRepN,test1trial.thisTrialN,test1trial.thisN,test1trial.thisIndex,test1trial.ran,stimulus_test1,corrAns_test1,resp_trial_Test1.rt,resp_Instr_Test2.keys,resp_Instr_Test2.rt,key_resp_Test2.keys,key_resp_Test2.corr,key_resp_Test2.rt,test2trial.thisRepN,test2trial.thisTrialN,test2trial.thisN,test2trial.thisIndex,test2trial.ran,stimulus_test2,corrAns_test2,resp_theEnd.keys,resp_theEnd.rt
space,12.7362,space,13.214,space,6.1594,space,1,0.591,0,0,0,5,1,X,space,PUM16K,001,PUM16K,2024-02-29_08h29.22.837,Trial go no go,2020.2.10,Win32,60,,,,,,,,,,,,,,,,,,,,,,,,,,
,,,,,,space,1,0.4845,0,1,1,12,1,X,space,PUM16K,001,PUM16K,2024-02-29_08h29.22.837,Trial go no go,2020.2.10,Win32,60,,,,,,,,,,,,,,,,,,,,,,,,,,
,,,,,,space,0,0.4362,0,2,2,4,1,W,none,PUM16K,001,PUM16K,2024-02-29_08h29.22.837,Trial go no go,2020.2.10,Win32,60,,,,,,,,,,,,,,,,,,,,,,,,,,
,,,,,,,1,,0,3,3,14,1,K,none,PUM16K,001,PUM16K,2024-02-29_08h29.22.837,Trial go no go,2020.2.10,Win32,60,,,,,,,,,,,,,,,,,,,,,,,,,,
,,,,,,space,1,0.6338,0,4,4,7,1,X,space,PUM16K,001,PUM16K,2024-02-29_08h29.22.837,Trial go no go,2020.2.10,Win32,60,,,,,,,,,,,,,,,,,,,,,,,,,,
,,,,,,,1,,0,5,5,9,1,V,none,PUM16K,001,PUM16K,2024-02-29_08h29.22.837,Trial go no go,2020.2.10,Win32,60,,,,,,,,,,,,,,,,,,,,,,,,,,
,,,,,,space,1,0.4575,0,6,6,10,1,X,space,PUM16K,001,PUM16K,2024-02-29_08h29.22.837,Trial go no go,2020.2.10,Win32,60,,,,,,,,,,,,,,,,,,,,,,,,,,
,,,,,,space,1,0.4593,0,7,7,8,1,X,space,PUM16K,001,PUM16K,2024-02-29_08h29.22.837,Trial go no go,2020.2.10,Win32,60,,,,,,,,,,,,,,,,,,,,,,,,,,
,,,,,,space,1,0.4606,0,8,8,11,1,X,space,PUM16K,001,PUM16K,2024-02-29_08h29.22.837,Trial go no go,2020.2.10,Win32,60,,,,,,,,,,,,,,,,,,,,,,,,,,
,,,,,,space,1,0.4945,0,9,9,6,1,X,space,PUM16K,001,PUM16K,2024-02-29_08h29.22.837,Trial go no go,2020.2.10,Win32,60,,,,,,,,,,,,,,,,,,,,,,,,,,
,,,,,,space,1,0.4674,0,10,10,1,1,X,space,PUM16K,001,PUM16K,2024-02-29_08h29.22.837,Trial go no go,2020.2.10,Win32,60,,,,,,,,,,,,,,,,,,,,,,,,,,
,,,,,,space,1,0.5176,0,11,11,3,1,X,space,PUM16K,001,PUM16K,2024-02-29_08h29.22.837,Trial go no go,2020.2.10,Win32,60,,,,,,,,,,,,,,,,,,,,,,,,,,
,,,,,,space,1,0.4509,0,12,12,0,1,X,space,PUM16K,001,PUM16K,2024-02-29_08h29.22.837,Trial go no go,2020.2.10,Win32,60,,,,,,,,,,,,,,,,,,,,,,,,,,
,,,,,,space,1,0.4039,0,13,13,2,1,X,space,PUM16K,001,PUM16K,2024-02-29_08h29.22.837,Trial go no go,2020.2.10,Win32,60,,,,,,,,,,,,,,,,,,,,,,,,,,
,,,,,,space,1,0.421,0,14,14,13,1,X,space,PUM16K,001,PUM16K,2024-02-29_08h29.22.837,Trial go no go,2020.2.10,Win32,60,,,,,,,,,,,,,,,,,,,,,,,,,,
,,,,,,,,,,,,,,,,PUM16K,001,PUM16K,2024-02-29_08h29.22.837,Trial go no go,2020.2.10,Win32,60,space,4.9988,,0,0,0,0,38,1,X,space,,,,,,,,,,,,,,,
,,,,,,,,,,,,,,,,PUM16K,001,PUM16K,2024-02-29_08h29.22.837,Trial go no go,2020.2.10,Win32,60,,,,1,0,1,1,24,1,H,none,,,,,,,,,,,,,,,
,,,,,,,,,,,,,,,,PUM16K,001,PUM16K,2024-02-29_08h29.22.837,Trial go no go,2020.2.10,Win32,60,,,space,1,0,2,2,42,1,X,space,0.3588,,,,,,,,,,,,,,
,,,,,,,,,,,,,,,,PUM16K,001,PUM16K,2024-02-29_08h29.22.837,Trial go no go,2020.2.10,Win32,60,,,space,1,0,3,3,27,1,X,space,0.3837,,,,,,,,,,,,,,
,,,,,,,,,,,,,,,,PUM16K,001,PUM16K,2024-02-29_08h29.22.837,Trial go no go,2020.2.10,Win32,60,,,space,1,0,4,4,47,1,X,space,0.2775,,,,,,,,,,,,,,
,,,,,,,,,,,,,,,,PUM16K,001,PUM16K,2024-02-29_08h29.22.837,Trial go no go,2020.2.10,Win32,60,,,space,1,0,5,5,22,1,X,space,0.3174,,,,,,,,,,,,,,
,,,,,,,,,,,,,,,,PUM16K,001,PUM16K,2024-02-29_08h29.22.837,Trial go no go,2020.2.10,Win32,60,,,space,0,0,6,6,19,1,K,none,0.2914,,,,,,,,,,,,,,
,,,,,,,,,,,,,,,,PUM16K,001,PUM16K,2024-02-29_08h29.22.837,Trial go no go,2020.2.10,Win32,60,,,space,1,0,7,7,15,1,X,space,0.4102,,,,,,,,,,,,,,
,,,,,,,,,,,,,,,,PUM16K,001,PUM16K,2024-02-29_08h29.22.837,Trial go no go,2020.2.10,Win32,60,,,space,1,0,8,8,45,1,X,space,0.4011,,,,,,,,,,,,,,
,,,,,,,,,,,,,,,,PUM16K,001,PUM16K,2024-02-29_08h29.22.837,Trial go no go,2020.2.10,Win32,60,,,space,0,0,9,9,14,1,Y,none,0.4083,,,,,,,,,,,,,,
,,,,,,,,,,,,,,,,PUM16K,001,PUM16K,2024-02-29_08h29.22.837,Trial go no go,2020.2.10,Win32,60,,,,1,0,10,10,9,1,W,none,,,,,,,,,,,,,,,
,,,,,,,,,,,,,,,,PUM16K,001,PUM16K,2024-02-29_08h29.22.837,Trial go no go,2020.2.10,Win32,60,,,space,1,0,11,11,0,1,X,space,0.3741,,,,,,,,,,,,,,
,,,,,,,,,,,,,,,,PUM16K,001,PUM16K,2024-02-29_08h29.22.837,Trial go no go,2020.2.10,Win32,60,,,space,1,0,12,12,26,1,X,space,0.4002,,,,,,,,,,,,,,
,,,,,,,,,,,,,,,,PUM16K,001,PUM16K,2024-02-29_08h29.22.837,Trial go no go,2020.2.10,Win32,60,,,space,1,0,13,13,8,1,X,space,0.4686,,,,,,,,,,,,,,
,,,,,,,,,,,,,,,,PUM16K,001,PUM16K,2024-02-29_08h29.22.837,Trial go no go,2020.2.10,Win32,60,,,space,1,0,14,14,11,1,X,space,0.3839,,,,,,,,,,,,,,
,,,,,,,,,,,,,,,,PUM16K,001,PUM16K,2024-02-29_08h29.22.837,Trial go no go,2020.2.10,Win32,60,,,space,1,0,15,15,7,1,X,space,0.4029,,,,,,,,,,,,,,
,,,,,,,,,,,,,,,,PUM16K,001,PUM16K,2024-02-29_08h29.22.837,Trial go no go,2020.2.10,Win32,60,,,,1,0,16,16,4,1,V,none,,,,,,,,,,,,,,,
,,,,,,,,,,,,,,,,PUM16K,001,PUM16K,2024-02-29_08h29.22.837,Trial go no go,2020.2.10,Win32,60,,,space,1,0,17,17,31,1,X,space,0.3689,,,,,,,,,,,,,,
,,,,,,,,,,,,,,,,PUM16K,001,PUM16K,2024-02-29_08h29.22.837,Trial go no go,2020.2.10,Win32,60,,,space,1,0,18,18,18,1,X,space,0.3921,,,,,,,,,,,,,,
,,,,,,,,,,,,,,,,PUM16K,001,PUM16K,2024-02-29_08h29.22.837,Trial go no go,2020.2.10,Win32,60,,,space,1,0,19,19,33,1,X,space,0.3836,,,,,,,,,,,,,,
,,,,,,,,,,,,,,,,PUM16K,001,PUM16K,2024-02-29_08h29.22.837,Trial go no go,2020.2.10,Win32,60,,,space,1,0,20,20,28,1,X,space,0.3903,,,,,,,,,,,,,,
,,,,,,,,,,,,,,,,PUM16K,001,PUM16K,2024-02-29_08h29.22.837,Trial go no go,2020.2.10,Win32,60,,,space,1,0,21,21,37,1,X,space,0.384,,,,,,,,,,,,,,
,,,,,,,,,,,,,,,,PUM16K,001,PUM16K,2024-02-29_08h29.22.837,Trial go no go,2020.2.10,Win32,60,,,space,1,0,22,22,20,1,X,space,0.3727,,,,,,,,,,,,,,
,,,,,,,,,,,,,,,,PUM16K,001,PUM16K,2024-02-29_08h29.22.837,Trial go no go,2020.2.10,Win32,60,,,space,1,0,23,23,21,1,X,space,0.317,,,,,,,,,,,,,,
,,,,,,,,,,,,,,,,PUM16K,001,PUM16K,2024-02-29_08h29.22.837,Trial go no go,2020.2.10,Win32,60,,,space,1,0,24,24,25,1,X,space,0.322,,,,,,,,,,,,,,
,,,,,,,,,,,,,,,,PUM16K,001,PUM16K,2024-02-29_08h29.22.837,Trial go no go,2020.2.10,Win32,60,,,space,1,0,25,25,43,1,X,space,0.3501,,,,,,,,,,,,,,
,,,,,,,,,,,,,,,,PUM16K,001,PUM16K,2024-02-29_08h29.22.837,Trial go no go,2020.2.10,Win32,60,,,space,1,0,26,26,5,1,X,space,0.3519,,,,,,,,,,,,,,
,,,,,,,,,,,,,,,,PUM16K,001,PUM16K,2024-02-29_08h29.22.837,Trial go no go,2020.2.10,Win32,60,,,,1,0,27,27,39,1,M,none,,,,,,,,,,,,,,,
,,,,,,,,,,,,,,,,PUM16K,001,PUM16K,2024-02-29_08h29.22.837,Trial go no go,2020.2.10,Win32,60,,,,1,0,28,28,44,1,F,none,,,,,,,,,,,,,,,
,,,,,,,,,,,,,,,,PUM16K,001,PUM16K,2024-02-29_08h29.22.837,Trial go no go,2020.2.10,Win32,60,,,space,1,0,29,29,17,1,X,space,0.3568,,,,,,,,,,,,,,
,,,,,,,,,,,,,,,,PUM16K,001,PUM16K,2024-02-29_08h29.22.837,Trial go no go,2020.2.10,Win32,60,,,space,1,0,30,30,40,1,X,space,0.4603,,,,,,,,,,,,,,
,,,,,,,,,,,,,,,,PUM16K,001,PUM16K,2024-02-29_08h29.22.837,Trial go no go,2020.2.10,Win32,60,,,space,1,0,31,31,13,1,X,space,0.3392,,,,,,,,,,,,,,
,,,,,,,,,,,,,,,,PUM16K,001,PUM16K,2024-02-29_08h29.22.837,Trial go no go,2020.2.10,Win32,60,,,space,1,0,32,32,35,1,X,space,0.317,,,,,,,,,,,,,,
,,,,,,,,,,,,,,,,PUM16K,001,PUM16K,2024-02-29_08h29.22.837,Trial go no go,2020.2.10,Win32,60,,,space,1,0,33,33,23,1,X,space,0.534,,,,,,,,,,,,,,
,,,,,,,,,,,,,,,,PUM16K,001,PUM16K,2024-02-29_08h29.22.837,Trial go no go,2020.2.10,Win32,60,,,space,1,0,34,34,2,1,X,space,0.3121,,,,,,,,,,,,,,
,,,,,,,,,,,,,,,,PUM16K,001,PUM16K,2024-02-29_08h29.22.837,Trial go no go,2020.2.10,Win32,60,,,space,1,0,35,35,3,1,X,space,0.3035,,,,,,,,,,,,,,
,,,,,,,,,,,,,,,,PUM16K,001,PUM16K,2024-02-29_08h29.22.837,Trial go no go,2020.2.10,Win32,60,,,space,1,0,36,36,41,1,X,space,0.3101,,,,,,,,,,,,,,
,,,,,,,,,,,,,,,,PUM16K,001,PUM16K,2024-02-29_08h29.22.837,Trial go no go,2020.2.10,Win32,60,,,space,1,0,37,37,1,1,X,space,0.2849,,,,,,,,,,,,,,
,,,,,,,,,,,,,,,,PUM16K,001,PUM16K,2024-02-29_08h29.22.837,Trial go no go,2020.2.10,Win32,60,,,space,1,0,38,38,46,1,X,space,0.3409,,,,,,,,,,,,,,
,,,,,,,,,,,,,,,,PUM16K,001,PUM16K,2024-02-29_08h29.22.837,Trial go no go,2020.2.10,Win32,60,,,space,1,0,39,39,12,1,X,space,0.3336,,,,,,,,,,,,,,
,,,,,,,,,,,,,,,,PUM16K,001,PUM16K,2024-02-29_08h29.22.837,Trial go no go,2020.2.10,Win32,60,,,space,1,0,40,40,36,1,X,space,0.338,,,,,,,,,,,,,,
,,,,,,,,,,,,,,,,PUM16K,001,PUM16K,2024-02-29_08h29.22.837,Trial go no go,2020.2.10,Win32,60,,,space,1,0,41,41,16,1,X,space,0.3448,,,,,,,,,,,,,,
,,,,,,,,,,,,,,,,PUM16K,001,PUM16K,2024-02-29_08h29.22.837,Trial go no go,2020.2.10,Win32,60,,,,1,0,42,42,49,1,E,none,,,,,,,,,,,,,,,
,,,,,,,,,,,,,,,,PUM16K,001,PUM16K,2024-02-29_08h29.22.837,Trial go no go,2020.2.10,Win32,60,,,space,1,0,43,43,6,1,X,space,0.359,,,,,,,,,,,,,,
,,,,,,,,,,,,,,,,PUM16K,001,PUM16K,2024-02-29_08h29.22.837,Trial go no go,2020.2.10,Win32,60,,,space,1,0,44,44,30,1,X,space,0.3505,,,,,,,,,,,,,,
,,,,,,,,,,,,,,,,PUM16K,001,PUM16K,2024-02-29_08h29.22.837,Trial go no go,2020.2.10,Win32,60,,,space,1,0,45,45,10,1,X,space,0.341,,,,,,,,,,,,,,
,,,,,,,,,,,,,,,,PUM16K,001,PUM16K,2024-02-29_08h29.22.837,Trial go no go,2020.2.10,Win32,60,,,space,1,0,46,46,32,1,X,space,0.3501,,,,,,,,,,,,,,
,,,,,,,,,,,,,,,,PUM16K,001,PUM16K,2024-02-29_08h29.22.837,Trial go no go,2020.2.10,Win32,60,,,space,1,0,47,47,48,1,X,space,0.3237,,,,,,,,,,,,,,
,,,,,,,,,,,,,,,,PUM16K,001,PUM16K,2024-02-29_08h29.22.837,Trial go no go,2020.2.10,Win32,60,,,,1,0,48,48,34,1,N,none,,,,,,,,,,,,,,,
,,,,,,,,,,,,,,,,PUM16K,001,PUM16K,2024-02-29_08h29.22.837,Trial go no go,2020.2.10,Win32,60,,,,1,0,49,49,29,1,T,none,,,,,,,,,,,,,,,
,,,,,,,,,,,,,,,,PUM16K,001,PUM16K,2024-02-29_08h29.22.837,Trial go no go,2020.2.10,Win32,60,,,,,,,,,,,,,z,22.8407,space,1,0.9672,0,0,0,10,1,H,space,,
,,,,,,,,,,,,,,,,PUM16K,001,PUM16K,2024-02-29_08h29.22.837,Trial go no go,2020.2.10,Win32,60,,,,,,,,,,,,,,,space,1,0.454,0,1,1,37,1,W,space,,
,,,,,,,,,,,,,,,,PUM16K,001,PUM16K,2024-02-29_08h29.22.837,Trial go no go,2020.2.10,Win32,60,,,,,,,,,,,,,,,space,1,0.3336,0,2,2,5,1,Y,space,,
,,,,,,,,,,,,,,,,PUM16K,001,PUM16K,2024-02-29_08h29.22.837,Trial go no go,2020.2.10,Win32,60,,,,,,,,,,,,,,,space,1,0.3082,0,3,3,7,1,A,space,,
,,,,,,,,,,,,,,,,PUM16K,001,PUM16K,2024-02-29_08h29.22.837,Trial go no go,2020.2.10,Win32,60,,,,,,,,,,,,,,,,1,,0,4,4,14,1,X,none,,
,,,,,,,,,,,,,,,,PUM16K,001,PUM16K,2024-02-29_08h29.22.837,Trial go no go,2020.2.10,Win32,60,,,,,,,,,,,,,,,space,1,0.274,0,5,5,16,1,N,space,,
,,,,,,,,,,,,,,,,PUM16K,001,PUM16K,2024-02-29_08h29.22.837,Trial go no go,2020.2.10,Win32,60,,,,,,,,,,,,,,,space,1,0.3171,0,6,6,1,1,E,space,,
,,,,,,,,,,,,,,,,PUM16K,001,PUM16K,2024-02-29_08h29.22.837,Trial go no go,2020.2.10,Win32,60,,,,,,,,,,,,,,,,1,,0,7,7,44,1,X,none,,
,,,,,,,,,,,,,,,,PUM16K,001,PUM16K,2024-02-29_08h29.22.837,Trial go no go,2020.2.10,Win32,60,,,,,,,,,,,,,,,space,1,0.2344,0,8,8,8,1,F,space,,
,,,,,,,,,,,,,,,,PUM16K,001,PUM16K,2024-02-29_08h29.22.837,Trial go no go,2020.2.10,Win32,60,,,,,,,,,,,,,,,space,1,0.3021,0,9,9,11,1,K,space,,
,,,,,,,,,,,,,,,,PUM16K,001,PUM16K,2024-02-29_08h29.22.837,Trial go no go,2020.2.10,Win32,60,,,,,,,,,,,,,,,space,1,0.3257,0,10,10,12,1,L,space,,
,,,,,,,,,,,,,,,,PUM16K,001,PUM16K,2024-02-29_08h29.22.837,Trial go no go,2020.2.10,Win32,60,,,,,,,,,,,,,,,space,1,0.3171,0,11,11,40,1,R,space,,
,,,,,,,,,,,,,,,,PUM16K,001,PUM16K,2024-02-29_08h29.22.837,Trial go no go,2020.2.10,Win32,60,,,,,,,,,,,,,,,space,1,0.419,0,12,12,33,1,V,space,,
,,,,,,,,,,,,,,,,PUM16K,001,PUM16K,2024-02-29_08h29.22.837,Trial go no go,2020.2.10,Win32,60,,,,,,,,,,,,,,,space,1,0.3169,0,13,13,13,1,Z,space,,
,,,,,,,,,,,,,,,,PUM16K,001,PUM16K,2024-02-29_08h29.22.837,Trial go no go,2020.2.10,Win32,60,,,,,,,,,,,,,,,,1,,0,14,14,29,1,X,none,,
,,,,,,,,,,,,,,,,PUM16K,001,PUM16K,2024-02-29_08h29.22.837,Trial go no go,2020.2.10,Win32,60,,,,,,,,,,,,,,,space,1,0.4079,0,15,15,47,1,H,space,,
,,,,,,,,,,,,,,,,PUM16K,001,PUM16K,2024-02-29_08h29.22.837,Trial go no go,2020.2.10,Win32,60,,,,,,,,,,,,,,,space,0,0.2869,0,16,16,24,1,X,none,,
,,,,,,,,,,,,,,,,PUM16K,001,PUM16K,2024-02-29_08h29.22.837,Trial go no go,2020.2.10,Win32,60,,,,,,,,,,,,,,,space,1,0.3427,0,17,17,26,1,A,space,,
,,,,,,,,,,,,,,,,PUM16K,001,PUM16K,2024-02-29_08h29.22.837,Trial go no go,2020.2.10,Win32,60,,,,,,,,,,,,,,,space,1,0.4337,0,18,18,42,1,Y,space,,
,,,,,,,,,,,,,,,,PUM16K,001,PUM16K,2024-02-29_08h29.22.837,Trial go no go,2020.2.10,Win32,60,,,,,,,,,,,,,,,space,1,0.3889,0,19,19,31,1,L,space,,
,,,,,,,,,,,,,,,,PUM16K,001,PUM16K,2024-02-29_08h29.22.837,Trial go no go,2020.2.10,Win32,60,,,,,,,,,,,,,,,space,1,0.3503,0,20,20,15,1,V,space,,
,,,,,,,,,,,,,,,,PUM16K,001,PUM16K,2024-02-29_08h29.22.837,Trial go no go,2020.2.10,Win32,60,,,,,,,,,,,,,,,space,1,0.3545,0,21,21,22,1,T,space,,
,,,,,,,,,,,,,,,,PUM16K,001,PUM16K,2024-02-29_08h29.22.837,Trial go no go,2020.2.10,Win32,60,,,,,,,,,,,,,,,,1,,0,22,22,4,1,X,none,,
,,,,,,,,,,,,,,,,PUM16K,001,PUM16K,2024-02-29_08h29.22.837,Trial go no go,2020.2.10,Win32,60,,,,,,,,,,,,,,,space,1,0.3365,0,23,23,41,1,T,space,,
,,,,,,,,,,,,,,,,PUM16K,001,PUM16K,2024-02-29_08h29.22.837,Trial go no go,2020.2.10,Win32,60,,,,,,,,,,,,,,,space,1,0.2977,0,24,24,17,1,M,space,,
,,,,,,,,,,,,,,,,PUM16K,001,PUM16K,2024-02-29_08h29.22.837,Trial go no go,2020.2.10,Win32,60,,,,,,,,,,,,,,,space,1,0.3372,0,25,25,28,1,H,space,,
,,,,,,,,,,,,,,,,PUM16K,001,PUM16K,2024-02-29_08h29.22.837,Trial go no go,2020.2.10,Win32,60,,,,,,,,,,,,,,,space,1,0.3444,0,26,26,23,1,Y,space,,
,,,,,,,,,,,,,,,,PUM16K,001,PUM16K,2024-02-29_08h29.22.837,Trial go no go,2020.2.10,Win32,60,,,,,,,,,,,,,,,space,1,0.3192,0,27,27,2,1,R,space,,
,,,,,,,,,,,,,,,,PUM16K,001,PUM16K,2024-02-29_08h29.22.837,Trial go no go,2020.2.10,Win32,60,,,,,,,,,,,,,,,space,1,0.342,0,28,28,45,1,A,space,,
,,,,,,,,,,,,,,,,PUM16K,001,PUM16K,2024-02-29_08h29.22.837,Trial go no go,2020.2.10,Win32,60,,,,,,,,,,,,,,,space,1,0.4126,0,29,29,0,1,W,space,,
,,,,,,,,,,,,,,,,PUM16K,001,PUM16K,2024-02-29_08h29.22.837,Trial go no go,2020.2.10,Win32,60,,,,,,,,,,,,,,,space,1,0.3714,0,30,30,25,1,I,space,,
,,,,,,,,,,,,,,,,PUM16K,001,PUM16K,2024-02-29_08h29.22.837,Trial go no go,2020.2.10,Win32,60,,,,,,,,,,,,,,,space,1,0.3615,0,31,31,35,1,N,space,,
,,,,,,,,,,,,,,,,PUM16K,001,PUM16K,2024-02-29_08h29.22.837,Trial go no go,2020.2.10,Win32,60,,,,,,,,,,,,,,,,1,,0,32,32,34,1,X,none,,
,,,,,,,,,,,,,,,,PUM16K,001,PUM16K,2024-02-29_08h29.22.837,Trial go no go,2020.2.10,Win32,60,,,,,,,,,,,,,,,space,1,0.4066,0,33,33,30,1,K,space,,
,,,,,,,,,,,,,,,,PUM16K,001,PUM16K,2024-02-29_08h29.22.837,Trial go no go,2020.2.10,Win32,60,,,,,,,,,,,,,,,space,1,0.3343,0,34,34,3,1,T,space,,
,,,,,,,,,,,,,,,,PUM16K,001,PUM16K,2024-02-29_08h29.22.837,Trial go no go,2020.2.10,Win32,60,,,,,,,,,,,,,,,space,0,0.3095,0,35,35,39,1,X,none,,
,,,,,,,,,,,,,,,,PUM16K,001,PUM16K,2024-02-29_08h29.22.837,Trial go no go,2020.2.10,Win32,60,,,,,,,,,,,,,,,space,0,0.3336,0,36,36,9,1,X,none,,
,,,,,,,,,,,,,,,,PUM16K,001,PUM16K,2024-02-29_08h29.22.837,Trial go no go,2020.2.10,Win32,60,,,,,,,,,,,,,,,space,1,0.5505,0,37,37,46,1,F,space,,
,,,,,,,,,,,,,,,,PUM16K,001,PUM16K,2024-02-29_08h29.22.837,Trial go no go,2020.2.10,Win32,60,,,,,,,,,,,,,,,,1,,0,38,38,19,1,X,none,,
,,,,,,,,,,,,,,,,PUM16K,001,PUM16K,2024-02-29_08h29.22.837,Trial go no go,2020.2.10,Win32,60,,,,,,,,,,,,,,,space,1,0.3214,0,39,39,21,1,R,space,,
,,,,,,,,,,,,,,,,PUM16K,001,PUM16K,2024-02-29_08h29.22.837,Trial go no go,2020.2.10,Win32,60,,,,,,,,,,,,,,,space,1,0.3764,0,40,40,48,1,K,space,,
,,,,,,,,,,,,,,,,PUM16K,001,PUM16K,2024-02-29_08h29.22.837,Trial go no go,2020.2.10,Win32,60,,,,,,,,,,,,,,,space,1,0.336,0,41,41,38,1,E,space,,
,,,,,,,,,,,,,,,,PUM16K,001,PUM16K,2024-02-29_08h29.22.837,Trial go no go,2020.2.10,Win32,60,,,,,,,,,,,,,,,space,1,0.3742,0,42,42,27,1,F,space,,
,,,,,,,,,,,,,,,,PUM16K,001,PUM16K,2024-02-29_08h29.22.837,Trial go no go,2020.2.10,Win32,60,,,,,,,,,,,,,,,space,1,0.4456,0,43,43,18,1,W,space,,
,,,,,,,,,,,,,,,,PUM16K,001,PUM16K,2024-02-29_08h29.22.837,Trial go no go,2020.2.10,Win32,60,,,,,,,,,,,,,,,space,1,0.3562,0,44,44,6,1,I,space,,
,,,,,,,,,,,,,,,,PUM16K,001,PUM16K,2024-02-29_08h29.22.837,Trial go no go,2020.2.10,Win32,60,,,,,,,,,,,,,,,,1,,0,45,45,49,1,X,none,,
,,,,,,,,,,,,,,,,PUM16K,001,PUM16K,2024-02-29_08h29.22.837,Trial go no go,2020.2.10,Win32,60,,,,,,,,,,,,,,,space,1,0.4186,0,46,46,32,1,Z,space,,
,,,,,,,,,,,,,,,,PUM16K,001,PUM16K,2024-02-29_08h29.22.837,Trial go no go,2020.2.10,Win32,60,,,,,,,,,,,,,,,space,1,0.3774,0,47,47,20,1,E,space,,
,,,,,,,,,,,,,,,,PUM16K,001,PUM16K,2024-02-29_08h29.22.837,Trial go no go,2020.2.10,Win32,60,,,,,,,,,,,,,,,space,1,0.3524,0,48,48,43,1,I,space,,
,,,,,,,,,,,,,,,,PUM16K,001,PUM16K,2024-02-29_08h29.22.837,Trial go no go,2020.2.10,Win32,60,,,,,,,,,,,,,,,space,1,0.4555,0,49,49,36,1,M,space,,
,,,,,,,,,,,,,,,,PUM16K,001,PUM16K,2024-02-29_08h29.22.837,Trial go no go,2020.2.10,Win32,60,,,,,,,,,,,,,,,,,,,,,,,,,space,13.5829
