resp_Welcome.keys,resp_Welcome.rt,resp_Instr_Intro.keys,resp_Instr_Intro.rt,resp_Instr_Prac1.keys,resp_Instr_Prac1.rt,resp_trial_Prac1.keys,resp_trial_Prac1.corr,prac_trials.thisRepN,prac_trials.thisTrialN,prac_trials.thisN,prac_trials.thisIndex,prac_trials.ran,stimulus_prac1,corrAns_prac1,participant,session,indywidualny kod,date,expName,psychopyVersion,OS,frameRate,resp_trial_Prac1.rt,resp_Instr_Test1.keys,resp_Instr_Test1.rt,resp_trial_Test1.keys,resp_trial_Test1.corr,test1trial.thisRepN,test1trial.thisTrialN,test1trial.thisN,test1trial.thisIndex,test1trial.ran,stimulus_test1,corrAns_test1,resp_trial_Test1.rt,resp_Instr_Test2.keys,resp_Instr_Test2.rt,key_resp_Test2.keys,key_resp_Test2.corr,key_resp_Test2.rt,test2trial.thisRepN,test2trial.thisTrialN,test2trial.thisN,test2trial.thisIndex,test2trial.ran,stimulus_test2,corrAns_test2,resp_theEnd.keys,resp_theEnd.rt
space,11.33,space,13.155,space,11.5027,,1,0,0,0,4,1,W,none,PUM16B,001,PUMB16B,2023-10-30_07h54.46.251,Trial go no go,2020.2.10,Win32,60,,,,,,,,,,,,,,,,,,,,,,,,,,,
,,,,,,space,1,0,1,1,11,1,X,space,PUM16B,001,PUMB16B,2023-10-30_07h54.46.251,Trial go no go,2020.2.10,Win32,60,0.5493,,,,,,,,,,,,,,,,,,,,,,,,,,
,,,,,,space,1,0,2,2,3,1,X,space,PUM16B,001,PUMB16B,2023-10-30_07h54.46.251,Trial go no go,2020.2.10,Win32,60,0.385,,,,,,,,,,,,,,,,,,,,,,,,,,
,,,,,,,1,0,3,3,9,1,V,none,PUM16B,001,PUMB16B,2023-10-30_07h54.46.251,Trial go no go,2020.2.10,Win32,60,,,,,,,,,,,,,,,,,,,,,,,,,,,
,,,,,,space,1,0,4,4,7,1,X,space,PUM16B,001,PUMB16B,2023-10-30_07h54.46.251,Trial go no go,2020.2.10,Win32,60,0.4262,,,,,,,,,,,,,,,,,,,,,,,,,,
,,,,,,space,1,0,5,5,2,1,X,space,PUM16B,001,PUMB16B,2023-10-30_07h54.46.251,Trial go no go,2020.2.10,Win32,60,0.2928,,,,,,,,,,,,,,,,,,,,,,,,,,
,,,,,,space,1,0,6,6,5,1,X,space,PUM16B,001,PUMB16B,2023-10-30_07h54.46.251,Trial go no go,2020.2.10,Win32,60,0.3696,,,,,,,,,,,,,,,,,,,,,,,,,,
,,,,,,space,1,0,7,7,6,1,X,space,PUM16B,001,PUMB16B,2023-10-30_07h54.46.251,Trial go no go,2020.2.10,Win32,60,0.4521,,,,,,,,,,,,,,,,,,,,,,,,,,
,,,,,,space,1,0,8,8,8,1,X,space,PUM16B,001,PUMB16B,2023-10-30_07h54.46.251,Trial go no go,2020.2.10,Win32,60,0.4413,,,,,,,,,,,,,,,,,,,,,,,,,,
,,,,,,,1,0,9,9,14,1,K,none,PUM16B,001,PUMB16B,2023-10-30_07h54.46.251,Trial go no go,2020.2.10,Win32,60,,,,,,,,,,,,,,,,,,,,,,,,,,,
,,,,,,space,1,0,10,10,0,1,X,space,PUM16B,001,PUMB16B,2023-10-30_07h54.46.251,Trial go no go,2020.2.10,Win32,60,0.3634,,,,,,,,,,,,,,,,,,,,,,,,,,
,,,,,,space,1,0,11,11,10,1,X,space,PUM16B,001,PUMB16B,2023-10-30_07h54.46.251,Trial go no go,2020.2.10,Win32,60,0.2952,,,,,,,,,,,,,,,,,,,,,,,,,,
,,,,,,space,1,0,12,12,13,1,X,space,PUM16B,001,PUMB16B,2023-10-30_07h54.46.251,Trial go no go,2020.2.10,Win32,60,0.2875,,,,,,,,,,,,,,,,,,,,,,,,,,
,,,,,,space,1,0,13,13,1,1,X,space,PUM16B,001,PUMB16B,2023-10-30_07h54.46.251,Trial go no go,2020.2.10,Win32,60,0.3014,,,,,,,,,,,,,,,,,,,,,,,,,,
,,,,,,space,1,0,14,14,12,1,X,space,PUM16B,001,PUMB16B,2023-10-30_07h54.46.251,Trial go no go,2020.2.10,Win32,60,0.4176,,,,,,,,,,,,,,,,,,,,,,,,,,
,,,,,,,,,,,,,,,PUM16B,001,PUMB16B,2023-10-30_07h54.46.251,Trial go no go,2020.2.10,Win32,60,,space,9.9321,,1,0,0,0,44,1,F,none,,,,,,,,,,,,,,,
,,,,,,,,,,,,,,,PUM16B,001,PUMB16B,2023-10-30_07h54.46.251,Trial go no go,2020.2.10,Win32,60,,,,space,1,0,1,1,31,1,X,space,0.3476,,,,,,,,,,,,,,
,,,,,,,,,,,,,,,PUM16B,001,PUMB16B,2023-10-30_07h54.46.251,Trial go no go,2020.2.10,Win32,60,,,,space,1,0,2,2,12,1,X,space,0.3334,,,,,,,,,,,,,,
,,,,,,,,,,,,,,,PUM16B,001,PUMB16B,2023-10-30_07h54.46.251,Trial go no go,2020.2.10,Win32,60,,,,space,1,0,3,3,5,1,X,space,0.3195,,,,,,,,,,,,,,
,,,,,,,,,,,,,,,PUM16B,001,PUMB16B,2023-10-30_07h54.46.251,Trial go no go,2020.2.10,Win32,60,,,,space,1,0,4,4,41,1,X,space,0.2909,,,,,,,,,,,,,,
,,,,,,,,,,,,,,,PUM16B,001,PUMB16B,2023-10-30_07h54.46.251,Trial go no go,2020.2.10,Win32,60,,,,space,1,0,5,5,37,1,X,space,0.3473,,,,,,,,,,,,,,
,,,,,,,,,,,,,,,PUM16B,001,PUMB16B,2023-10-30_07h54.46.251,Trial go no go,2020.2.10,Win32,60,,,,,1,0,6,6,19,1,K,none,,,,,,,,,,,,,,,
,,,,,,,,,,,,,,,PUM16B,001,PUMB16B,2023-10-30_07h54.46.251,Trial go no go,2020.2.10,Win32,60,,,,space,1,0,7,7,10,1,X,space,0.2782,,,,,,,,,,,,,,
,,,,,,,,,,,,,,,PUM16B,001,PUMB16B,2023-10-30_07h54.46.251,Trial go no go,2020.2.10,Win32,60,,,,space,0,0,8,8,4,1,V,none,0.3336,,,,,,,,,,,,,,
,,,,,,,,,,,,,,,PUM16B,001,PUMB16B,2023-10-30_07h54.46.251,Trial go no go,2020.2.10,Win32,60,,,,space,1,0,9,9,7,1,X,space,0.4859,,,,,,,,,,,,,,
,,,,,,,,,,,,,,,PUM16B,001,PUMB16B,2023-10-30_07h54.46.251,Trial go no go,2020.2.10,Win32,60,,,,space,1,0,10,10,25,1,X,space,0.3336,,,,,,,,,,,,,,
,,,,,,,,,,,,,,,PUM16B,001,PUMB16B,2023-10-30_07h54.46.251,Trial go no go,2020.2.10,Win32,60,,,,space,1,0,11,11,8,1,X,space,0.2642,,,,,,,,,,,,,,
,,,,,,,,,,,,,,,PUM16B,001,PUMB16B,2023-10-30_07h54.46.251,Trial go no go,2020.2.10,Win32,60,,,,,1,0,12,12,49,1,E,none,,,,,,,,,,,,,,,
,,,,,,,,,,,,,,,PUM16B,001,PUMB16B,2023-10-30_07h54.46.251,Trial go no go,2020.2.10,Win32,60,,,,space,1,0,13,13,20,1,X,space,0.2714,,,,,,,,,,,,,,
,,,,,,,,,,,,,,,PUM16B,001,PUMB16B,2023-10-30_07h54.46.251,Trial go no go,2020.2.10,Win32,60,,,,space,1,0,14,14,33,1,X,space,0.2917,,,,,,,,,,,,,,
,,,,,,,,,,,,,,,PUM16B,001,PUMB16B,2023-10-30_07h54.46.251,Trial go no go,2020.2.10,Win32,60,,,,space,1,0,15,15,28,1,X,space,0.2575,,,,,,,,,,,,,,
,,,,,,,,,,,,,,,PUM16B,001,PUMB16B,2023-10-30_07h54.46.251,Trial go no go,2020.2.10,Win32,60,,,,space,1,0,16,16,0,1,X,space,0.2782,,,,,,,,,,,,,,
,,,,,,,,,,,,,,,PUM16B,001,PUMB16B,2023-10-30_07h54.46.251,Trial go no go,2020.2.10,Win32,60,,,,space,1,0,17,17,35,1,X,space,0.2436,,,,,,,,,,,,,,
,,,,,,,,,,,,,,,PUM16B,001,PUMB16B,2023-10-30_07h54.46.251,Trial go no go,2020.2.10,Win32,60,,,,space,1,0,18,18,22,1,X,space,0.2365,,,,,,,,,,,,,,
,,,,,,,,,,,,,,,PUM16B,001,PUMB16B,2023-10-30_07h54.46.251,Trial go no go,2020.2.10,Win32,60,,,,space,0,0,19,19,39,1,M,none,0.2293,,,,,,,,,,,,,,
,,,,,,,,,,,,,,,PUM16B,001,PUMB16B,2023-10-30_07h54.46.251,Trial go no go,2020.2.10,Win32,60,,,,space,1,0,20,20,18,1,X,space,0.3193,,,,,,,,,,,,,,
,,,,,,,,,,,,,,,PUM16B,001,PUMB16B,2023-10-30_07h54.46.251,Trial go no go,2020.2.10,Win32,60,,,,space,1,0,21,21,36,1,X,space,0.3473,,,,,,,,,,,,,,
,,,,,,,,,,,,,,,PUM16B,001,PUMB16B,2023-10-30_07h54.46.251,Trial go no go,2020.2.10,Win32,60,,,,space,1,0,22,22,32,1,X,space,0.2916,,,,,,,,,,,,,,
,,,,,,,,,,,,,,,PUM16B,001,PUMB16B,2023-10-30_07h54.46.251,Trial go no go,2020.2.10,Win32,60,,,,space,1,0,23,23,6,1,X,space,0.3126,,,,,,,,,,,,,,
,,,,,,,,,,,,,,,PUM16B,001,PUMB16B,2023-10-30_07h54.46.251,Trial go no go,2020.2.10,Win32,60,,,,space,1,0,24,24,38,1,X,space,0.3126,,,,,,,,,,,,,,
,,,,,,,,,,,,,,,PUM16B,001,PUMB16B,2023-10-30_07h54.46.251,Trial go no go,2020.2.10,Win32,60,,,,space,1,0,25,25,21,1,X,space,0.2643,,,,,,,,,,,,,,
,,,,,,,,,,,,,,,PUM16B,001,PUMB16B,2023-10-30_07h54.46.251,Trial go no go,2020.2.10,Win32,60,,,,space,1,0,26,26,11,1,X,space,0.2783,,,,,,,,,,,,,,
,,,,,,,,,,,,,,,PUM16B,001,PUMB16B,2023-10-30_07h54.46.251,Trial go no go,2020.2.10,Win32,60,,,,space,1,0,27,27,30,1,X,space,0.2986,,,,,,,,,,,,,,
,,,,,,,,,,,,,,,PUM16B,001,PUMB16B,2023-10-30_07h54.46.251,Trial go no go,2020.2.10,Win32,60,,,,space,1,0,28,28,26,1,X,space,0.3125,,,,,,,,,,,,,,
,,,,,,,,,,,,,,,PUM16B,001,PUMB16B,2023-10-30_07h54.46.251,Trial go no go,2020.2.10,Win32,60,,,,space,1,0,29,29,48,1,X,space,0.2713,,,,,,,,,,,,,,
,,,,,,,,,,,,,,,PUM16B,001,PUMB16B,2023-10-30_07h54.46.251,Trial go no go,2020.2.10,Win32,60,,,,,1,0,30,30,29,1,T,none,,,,,,,,,,,,,,,
,,,,,,,,,,,,,,,PUM16B,001,PUMB16B,2023-10-30_07h54.46.251,Trial go no go,2020.2.10,Win32,60,,,,space,1,0,31,31,1,1,X,space,0.3272,,,,,,,,,,,,,,
,,,,,,,,,,,,,,,PUM16B,001,PUMB16B,2023-10-30_07h54.46.251,Trial go no go,2020.2.10,Win32,60,,,,space,0,0,32,32,9,1,W,none,0.2991,,,,,,,,,,,,,,
,,,,,,,,,,,,,,,PUM16B,001,PUMB16B,2023-10-30_07h54.46.251,Trial go no go,2020.2.10,Win32,60,,,,space,1,0,33,33,2,1,X,space,0.3691,,,,,,,,,,,,,,
,,,,,,,,,,,,,,,PUM16B,001,PUMB16B,2023-10-30_07h54.46.251,Trial go no go,2020.2.10,Win32,60,,,,space,1,0,34,34,42,1,X,space,0.4119,,,,,,,,,,,,,,
,,,,,,,,,,,,,,,PUM16B,001,PUMB16B,2023-10-30_07h54.46.251,Trial go no go,2020.2.10,Win32,60,,,,space,1,0,35,35,15,1,X,space,0.3266,,,,,,,,,,,,,,
,,,,,,,,,,,,,,,PUM16B,001,PUMB16B,2023-10-30_07h54.46.251,Trial go no go,2020.2.10,Win32,60,,,,space,1,0,36,36,47,1,X,space,0.2815,,,,,,,,,,,,,,
,,,,,,,,,,,,,,,PUM16B,001,PUMB16B,2023-10-30_07h54.46.251,Trial go no go,2020.2.10,Win32,60,,,,space,1,0,37,37,40,1,X,space,0.3965,,,,,,,,,,,,,,
,,,,,,,,,,,,,,,PUM16B,001,PUMB16B,2023-10-30_07h54.46.251,Trial go no go,2020.2.10,Win32,60,,,,,1,0,38,38,24,1,H,none,,,,,,,,,,,,,,,
,,,,,,,,,,,,,,,PUM16B,001,PUMB16B,2023-10-30_07h54.46.251,Trial go no go,2020.2.10,Win32,60,,,,space,1,0,39,39,13,1,X,space,0.3142,,,,,,,,,,,,,,
,,,,,,,,,,,,,,,PUM16B,001,PUMB16B,2023-10-30_07h54.46.251,Trial go no go,2020.2.10,Win32,60,,,,,1,0,40,40,14,1,Y,none,,,,,,,,,,,,,,,
,,,,,,,,,,,,,,,PUM16B,001,PUMB16B,2023-10-30_07h54.46.251,Trial go no go,2020.2.10,Win32,60,,,,space,1,0,41,41,45,1,X,space,0.2921,,,,,,,,,,,,,,
,,,,,,,,,,,,,,,PUM16B,001,PUMB16B,2023-10-30_07h54.46.251,Trial go no go,2020.2.10,Win32,60,,,,,1,0,42,42,34,1,N,none,,,,,,,,,,,,,,,
,,,,,,,,,,,,,,,PUM16B,001,PUMB16B,2023-10-30_07h54.46.251,Trial go no go,2020.2.10,Win32,60,,,,space,1,0,43,43,43,1,X,space,0.2716,,,,,,,,,,,,,,
,,,,,,,,,,,,,,,PUM16B,001,PUMB16B,2023-10-30_07h54.46.251,Trial go no go,2020.2.10,Win32,60,,,,space,1,0,44,44,16,1,X,space,0.2922,,,,,,,,,,,,,,
,,,,,,,,,,,,,,,PUM16B,001,PUMB16B,2023-10-30_07h54.46.251,Trial go no go,2020.2.10,Win32,60,,,,space,1,0,45,45,17,1,X,space,0.2796,,,,,,,,,,,,,,
,,,,,,,,,,,,,,,PUM16B,001,PUMB16B,2023-10-30_07h54.46.251,Trial go no go,2020.2.10,Win32,60,,,,space,1,0,46,46,3,1,X,space,0.5588,,,,,,,,,,,,,,
,,,,,,,,,,,,,,,PUM16B,001,PUMB16B,2023-10-30_07h54.46.251,Trial go no go,2020.2.10,Win32,60,,,,space,1,0,47,47,27,1,X,space,0.2922,,,,,,,,,,,,,,
,,,,,,,,,,,,,,,PUM16B,001,PUMB16B,2023-10-30_07h54.46.251,Trial go no go,2020.2.10,Win32,60,,,,space,1,0,48,48,46,1,X,space,0.3028,,,,,,,,,,,,,,
,,,,,,,,,,,,,,,PUM16B,001,PUMB16B,2023-10-30_07h54.46.251,Trial go no go,2020.2.10,Win32,60,,,,space,1,0,49,49,23,1,X,space,0.2855,,,,,,,,,,,,,,
,,,,,,,,,,,,,,,PUM16B,001,PUMB16B,2023-10-30_07h54.46.251,Trial go no go,2020.2.10,Win32,60,,,,,,,,,,,,,,z,15.0643,space,1,0.6256,0,0,0,6,1,I,space,,
,,,,,,,,,,,,,,,PUM16B,001,PUMB16B,2023-10-30_07h54.46.251,Trial go no go,2020.2.10,Win32,60,,,,,,,,,,,,,,,,space,1,0.3771,0,1,1,0,1,W,space,,
,,,,,,,,,,,,,,,PUM16B,001,PUMB16B,2023-10-30_07h54.46.251,Trial go no go,2020.2.10,Win32,60,,,,,,,,,,,,,,,,,1,,0,2,2,9,1,X,none,,
,,,,,,,,,,,,,,,PUM16B,001,PUMB16B,2023-10-30_07h54.46.251,Trial go no go,2020.2.10,Win32,60,,,,,,,,,,,,,,,,space,1,0.2466,0,3,3,43,1,I,space,,
,,,,,,,,,,,,,,,PUM16B,001,PUMB16B,2023-10-30_07h54.46.251,Trial go no go,2020.2.10,Win32,60,,,,,,,,,,,,,,,,space,1,0.2098,0,4,4,13,1,Z,space,,
,,,,,,,,,,,,,,,PUM16B,001,PUMB16B,2023-10-30_07h54.46.251,Trial go no go,2020.2.10,Win32,60,,,,,,,,,,,,,,,,space,0,0.2302,0,5,5,4,1,X,none,,
,,,,,,,,,,,,,,,PUM16B,001,PUMB16B,2023-10-30_07h54.46.251,Trial go no go,2020.2.10,Win32,60,,,,,,,,,,,,,,,,space,1,0.3131,0,6,6,27,1,F,space,,
,,,,,,,,,,,,,,,PUM16B,001,PUMB16B,2023-10-30_07h54.46.251,Trial go no go,2020.2.10,Win32,60,,,,,,,,,,,,,,,,space,1,0.3078,0,7,7,33,1,V,space,,
,,,,,,,,,,,,,,,PUM16B,001,PUMB16B,2023-10-30_07h54.46.251,Trial go no go,2020.2.10,Win32,60,,,,,,,,,,,,,,,,,1,,0,8,8,19,1,X,none,,
,,,,,,,,,,,,,,,PUM16B,001,PUMB16B,2023-10-30_07h54.46.251,Trial go no go,2020.2.10,Win32,60,,,,,,,,,,,,,,,,space,1,0.2526,0,9,9,25,1,I,space,,
,,,,,,,,,,,,,,,PUM16B,001,PUMB16B,2023-10-30_07h54.46.251,Trial go no go,2020.2.10,Win32,60,,,,,,,,,,,,,,,,space,1,0.2854,0,10,10,17,1,M,space,,
,,,,,,,,,,,,,,,PUM16B,001,PUMB16B,2023-10-30_07h54.46.251,Trial go no go,2020.2.10,Win32,60,,,,,,,,,,,,,,,,space,1,0.2581,0,11,11,22,1,T,space,,
,,,,,,,,,,,,,,,PUM16B,001,PUMB16B,2023-10-30_07h54.46.251,Trial go no go,2020.2.10,Win32,60,,,,,,,,,,,,,,,,space,1,0.2806,0,12,12,16,1,N,space,,
,,,,,,,,,,,,,,,PUM16B,001,PUMB16B,2023-10-30_07h54.46.251,Trial go no go,2020.2.10,Win32,60,,,,,,,,,,,,,,,,space,1,0.4449,0,13,13,15,1,V,space,,
,,,,,,,,,,,,,,,PUM16B,001,PUMB16B,2023-10-30_07h54.46.251,Trial go no go,2020.2.10,Win32,60,,,,,,,,,,,,,,,,space,1,0.2783,0,14,14,26,1,A,space,,
,,,,,,,,,,,,,,,PUM16B,001,PUMB16B,2023-10-30_07h54.46.251,Trial go no go,2020.2.10,Win32,60,,,,,,,,,,,,,,,,space,1,0.3161,0,15,15,3,1,T,space,,
,,,,,,,,,,,,,,,PUM16B,001,PUMB16B,2023-10-30_07h54.46.251,Trial go no go,2020.2.10,Win32,60,,,,,,,,,,,,,,,,space,1,0.3017,0,16,16,48,1,K,space,,
,,,,,,,,,,,,,,,PUM16B,001,PUMB16B,2023-10-30_07h54.46.251,Trial go no go,2020.2.10,Win32,60,,,,,,,,,,,,,,,,space,1,0.2853,0,17,17,7,1,A,space,,
,,,,,,,,,,,,,,,PUM16B,001,PUMB16B,2023-10-30_07h54.46.251,Trial go no go,2020.2.10,Win32,60,,,,,,,,,,,,,,,,space,1,0.3223,0,18,18,45,1,A,space,,
,,,,,,,,,,,,,,,PUM16B,001,PUMB16B,2023-10-30_07h54.46.251,Trial go no go,2020.2.10,Win32,60,,,,,,,,,,,,,,,,space,1,0.4677,0,19,19,21,1,R,space,,
,,,,,,,,,,,,,,,PUM16B,001,PUMB16B,2023-10-30_07h54.46.251,Trial go no go,2020.2.10,Win32,60,,,,,,,,,,,,,,,,space,1,0.2925,0,20,20,2,1,R,space,,
,,,,,,,,,,,,,,,PUM16B,001,PUMB16B,2023-10-30_07h54.46.251,Trial go no go,2020.2.10,Win32,60,,,,,,,,,,,,,,,,space,1,0.3555,0,21,21,23,1,Y,space,,
,,,,,,,,,,,,,,,PUM16B,001,PUMB16B,2023-10-30_07h54.46.251,Trial go no go,2020.2.10,Win32,60,,,,,,,,,,,,,,,,space,1,0.2927,0,22,22,47,1,H,space,,
,,,,,,,,,,,,,,,PUM16B,001,PUMB16B,2023-10-30_07h54.46.251,Trial go no go,2020.2.10,Win32,60,,,,,,,,,,,,,,,,space,1,0.2606,0,23,23,46,1,F,space,,
,,,,,,,,,,,,,,,PUM16B,001,PUMB16B,2023-10-30_07h54.46.251,Trial go no go,2020.2.10,Win32,60,,,,,,,,,,,,,,,,space,1,0.3135,0,24,24,28,1,H,space,,
,,,,,,,,,,,,,,,PUM16B,001,PUMB16B,2023-10-30_07h54.46.251,Trial go no go,2020.2.10,Win32,60,,,,,,,,,,,,,,,,space,1,0.286,0,25,25,32,1,Z,space,,
,,,,,,,,,,,,,,,PUM16B,001,PUMB16B,2023-10-30_07h54.46.251,Trial go no go,2020.2.10,Win32,60,,,,,,,,,,,,,,,,space,1,0.3273,0,26,26,30,1,K,space,,
,,,,,,,,,,,,,,,PUM16B,001,PUMB16B,2023-10-30_07h54.46.251,Trial go no go,2020.2.10,Win32,60,,,,,,,,,,,,,,,,,1,,0,27,27,34,1,X,none,,
,,,,,,,,,,,,,,,PUM16B,001,PUMB16B,2023-10-30_07h54.46.251,Trial go no go,2020.2.10,Win32,60,,,,,,,,,,,,,,,,space,1,0.2372,0,28,28,37,1,W,space,,
,,,,,,,,,,,,,,,PUM16B,001,PUMB16B,2023-10-30_07h54.46.251,Trial go no go,2020.2.10,Win32,60,,,,,,,,,,,,,,,,space,1,0.302,0,29,29,18,1,W,space,,
,,,,,,,,,,,,,,,PUM16B,001,PUMB16B,2023-10-30_07h54.46.251,Trial go no go,2020.2.10,Win32,60,,,,,,,,,,,,,,,,space,1,0.35,0,30,30,10,1,H,space,,
,,,,,,,,,,,,,,,PUM16B,001,PUMB16B,2023-10-30_07h54.46.251,Trial go no go,2020.2.10,Win32,60,,,,,,,,,,,,,,,,space,1,0.2744,0,31,31,35,1,N,space,,
,,,,,,,,,,,,,,,PUM16B,001,PUMB16B,2023-10-30_07h54.46.251,Trial go no go,2020.2.10,Win32,60,,,,,,,,,,,,,,,,space,1,0.3128,0,32,32,31,1,L,space,,
,,,,,,,,,,,,,,,PUM16B,001,PUMB16B,2023-10-30_07h54.46.251,Trial go no go,2020.2.10,Win32,60,,,,,,,,,,,,,,,,,1,,0,33,33,14,1,X,none,,
,,,,,,,,,,,,,,,PUM16B,001,PUMB16B,2023-10-30_07h54.46.251,Trial go no go,2020.2.10,Win32,60,,,,,,,,,,,,,,,,space,0,0.2453,0,34,34,44,1,X,none,,
,,,,,,,,,,,,,,,PUM16B,001,PUMB16B,2023-10-30_07h54.46.251,Trial go no go,2020.2.10,Win32,60,,,,,,,,,,,,,,,,space,1,0.3754,0,35,35,1,1,E,space,,
,,,,,,,,,,,,,,,PUM16B,001,PUMB16B,2023-10-30_07h54.46.251,Trial go no go,2020.2.10,Win32,60,,,,,,,,,,,,,,,,space,1,0.2856,0,36,36,5,1,Y,space,,
,,,,,,,,,,,,,,,PUM16B,001,PUMB16B,2023-10-30_07h54.46.251,Trial go no go,2020.2.10,Win32,60,,,,,,,,,,,,,,,,,1,,0,37,37,29,1,X,none,,
,,,,,,,,,,,,,,,PUM16B,001,PUMB16B,2023-10-30_07h54.46.251,Trial go no go,2020.2.10,Win32,60,,,,,,,,,,,,,,,,space,1,0.3168,0,38,38,40,1,R,space,,
,,,,,,,,,,,,,,,PUM16B,001,PUMB16B,2023-10-30_07h54.46.251,Trial go no go,2020.2.10,Win32,60,,,,,,,,,,,,,,,,,1,,0,39,39,49,1,X,none,,
,,,,,,,,,,,,,,,PUM16B,001,PUMB16B,2023-10-30_07h54.46.251,Trial go no go,2020.2.10,Win32,60,,,,,,,,,,,,,,,,space,1,0.2513,0,40,40,8,1,F,space,,
,,,,,,,,,,,,,,,PUM16B,001,PUMB16B,2023-10-30_07h54.46.251,Trial go no go,2020.2.10,Win32,60,,,,,,,,,,,,,,,,space,1,0.3652,0,41,41,12,1,L,space,,
,,,,,,,,,,,,,,,PUM16B,001,PUMB16B,2023-10-30_07h54.46.251,Trial go no go,2020.2.10,Win32,60,,,,,,,,,,,,,,,,space,1,0.2992,0,42,42,41,1,T,space,,
,,,,,,,,,,,,,,,PUM16B,001,PUMB16B,2023-10-30_07h54.46.251,Trial go no go,2020.2.10,Win32,60,,,,,,,,,,,,,,,,space,1,0.4592,0,43,43,11,1,K,space,,
,,,,,,,,,,,,,,,PUM16B,001,PUMB16B,2023-10-30_07h54.46.251,Trial go no go,2020.2.10,Win32,60,,,,,,,,,,,,,,,,space,1,0.2783,0,44,44,36,1,M,space,,
,,,,,,,,,,,,,,,PUM16B,001,PUMB16B,2023-10-30_07h54.46.251,Trial go no go,2020.2.10,Win32,60,,,,,,,,,,,,,,,,space,1,0.2805,0,45,45,20,1,E,space,,
,,,,,,,,,,,,,,,PUM16B,001,PUMB16B,2023-10-30_07h54.46.251,Trial go no go,2020.2.10,Win32,60,,,,,,,,,,,,,,,,space,1,0.3542,0,46,46,42,1,Y,space,,
,,,,,,,,,,,,,,,PUM16B,001,PUMB16B,2023-10-30_07h54.46.251,Trial go no go,2020.2.10,Win32,60,,,,,,,,,,,,,,,,,1,,0,47,47,24,1,X,none,,
,,,,,,,,,,,,,,,PUM16B,001,PUMB16B,2023-10-30_07h54.46.251,Trial go no go,2020.2.10,Win32,60,,,,,,,,,,,,,,,,space,1,0.2737,0,48,48,38,1,E,space,,
,,,,,,,,,,,,,,,PUM16B,001,PUMB16B,2023-10-30_07h54.46.251,Trial go no go,2020.2.10,Win32,60,,,,,,,,,,,,,,,,,1,,0,49,49,39,1,X,none,,
,,,,,,,,,,,,,,,PUM16B,001,PUMB16B,2023-10-30_07h54.46.251,Trial go no go,2020.2.10,Win32,60,,,,,,,,,,,,,,,,,,,,,,,,,,space,136.7813
