resp_Welcome.keys,resp_Welcome.rt,resp_Instr_Intro.keys,resp_Instr_Intro.rt,resp_Instr_Prac1.keys,resp_Instr_Prac1.rt,resp_trial_Prac1.keys,resp_trial_Prac1.corr,prac_trials.thisRepN,prac_trials.thisTrialN,prac_trials.thisN,prac_trials.thisIndex,prac_trials.ran,stimulus_prac1,corrAns_prac1,participant,session,indywidualny kod,date,expName,psychopyVersion,OS,frameRate,resp_trial_Prac1.rt,resp_Instr_Test1.keys,resp_Instr_Test1.rt,resp_trial_Test1.keys,resp_trial_Test1.corr,test1trial.thisRepN,test1trial.thisTrialN,test1trial.thisN,test1trial.thisIndex,test1trial.ran,stimulus_test1,corrAns_test1,resp_trial_Test1.rt,resp_Instr_Test2.keys,resp_Instr_Test2.rt,key_resp_Test2.keys,key_resp_Test2.corr,key_resp_Test2.rt,test2trial.thisRepN,test2trial.thisTrialN,test2trial.thisN,test2trial.thisIndex,test2trial.ran,stimulus_test2,corrAns_test2,resp_theEnd.keys,resp_theEnd.rt
space,35.8836,space,16.8548,space,10.2614,,1,0,0,0,4,1,W,none,PUM19K,001,PUM19K,2024-03-06_08h24.47.279,Trial go no go,2020.2.10,Win32,60,,,,,,,,,,,,,,,,,,,,,,,,,,,
,,,,,,space,1,0,1,1,0,1,X,space,PUM19K,001,PUM19K,2024-03-06_08h24.47.279,Trial go no go,2020.2.10,Win32,60,0.6385,,,,,,,,,,,,,,,,,,,,,,,,,,
,,,,,,space,1,0,2,2,5,1,X,space,PUM19K,001,PUM19K,2024-03-06_08h24.47.279,Trial go no go,2020.2.10,Win32,60,0.434,,,,,,,,,,,,,,,,,,,,,,,,,,
,,,,,,space,1,0,3,3,7,1,X,space,PUM19K,001,PUM19K,2024-03-06_08h24.47.279,Trial go no go,2020.2.10,Win32,60,0.4506,,,,,,,,,,,,,,,,,,,,,,,,,,
,,,,,,space,1,0,4,4,13,1,X,space,PUM19K,001,PUM19K,2024-03-06_08h24.47.279,Trial go no go,2020.2.10,Win32,60,0.3866,,,,,,,,,,,,,,,,,,,,,,,,,,
,,,,,,space,1,0,5,5,10,1,X,space,PUM19K,001,PUM19K,2024-03-06_08h24.47.279,Trial go no go,2020.2.10,Win32,60,0.4174,,,,,,,,,,,,,,,,,,,,,,,,,,
,,,,,,space,1,0,6,6,1,1,X,space,PUM19K,001,PUM19K,2024-03-06_08h24.47.279,Trial go no go,2020.2.10,Win32,60,0.3889,,,,,,,,,,,,,,,,,,,,,,,,,,
,,,,,,space,1,0,7,7,8,1,X,space,PUM19K,001,PUM19K,2024-03-06_08h24.47.279,Trial go no go,2020.2.10,Win32,60,0.3909,,,,,,,,,,,,,,,,,,,,,,,,,,
,,,,,,,1,0,8,8,14,1,K,none,PUM19K,001,PUM19K,2024-03-06_08h24.47.279,Trial go no go,2020.2.10,Win32,60,,,,,,,,,,,,,,,,,,,,,,,,,,,
,,,,,,space,1,0,9,9,2,1,X,space,PUM19K,001,PUM19K,2024-03-06_08h24.47.279,Trial go no go,2020.2.10,Win32,60,0.6002,,,,,,,,,,,,,,,,,,,,,,,,,,
,,,,,,,1,0,10,10,9,1,V,none,PUM19K,001,PUM19K,2024-03-06_08h24.47.279,Trial go no go,2020.2.10,Win32,60,,,,,,,,,,,,,,,,,,,,,,,,,,,
,,,,,,space,1,0,11,11,6,1,X,space,PUM19K,001,PUM19K,2024-03-06_08h24.47.279,Trial go no go,2020.2.10,Win32,60,0.5506,,,,,,,,,,,,,,,,,,,,,,,,,,
,,,,,,space,1,0,12,12,3,1,X,space,PUM19K,001,PUM19K,2024-03-06_08h24.47.279,Trial go no go,2020.2.10,Win32,60,0.4504,,,,,,,,,,,,,,,,,,,,,,,,,,
,,,,,,space,1,0,13,13,11,1,X,space,PUM19K,001,PUM19K,2024-03-06_08h24.47.279,Trial go no go,2020.2.10,Win32,60,0.4345,,,,,,,,,,,,,,,,,,,,,,,,,,
,,,,,,space,1,0,14,14,12,1,X,space,PUM19K,001,PUM19K,2024-03-06_08h24.47.279,Trial go no go,2020.2.10,Win32,60,0.434,,,,,,,,,,,,,,,,,,,,,,,,,,
,,,,,,,,,,,,,,,PUM19K,001,PUM19K,2024-03-06_08h24.47.279,Trial go no go,2020.2.10,Win32,60,,space,7.1249,,1,0,0,0,29,1,T,none,,,,,,,,,,,,,,,
,,,,,,,,,,,,,,,PUM19K,001,PUM19K,2024-03-06_08h24.47.279,Trial go no go,2020.2.10,Win32,60,,,,space,1,0,1,1,13,1,X,space,0.3396,,,,,,,,,,,,,,
,,,,,,,,,,,,,,,PUM19K,001,PUM19K,2024-03-06_08h24.47.279,Trial go no go,2020.2.10,Win32,60,,,,space,1,0,2,2,12,1,X,space,0.3503,,,,,,,,,,,,,,
,,,,,,,,,,,,,,,PUM19K,001,PUM19K,2024-03-06_08h24.47.279,Trial go no go,2020.2.10,Win32,60,,,,,1,0,3,3,24,1,H,none,,,,,,,,,,,,,,,
,,,,,,,,,,,,,,,PUM19K,001,PUM19K,2024-03-06_08h24.47.279,Trial go no go,2020.2.10,Win32,60,,,,space,1,0,4,4,1,1,X,space,0.3448,,,,,,,,,,,,,,
,,,,,,,,,,,,,,,PUM19K,001,PUM19K,2024-03-06_08h24.47.279,Trial go no go,2020.2.10,Win32,60,,,,space,1,0,5,5,7,1,X,space,0.3863,,,,,,,,,,,,,,
,,,,,,,,,,,,,,,PUM19K,001,PUM19K,2024-03-06_08h24.47.279,Trial go no go,2020.2.10,Win32,60,,,,space,1,0,6,6,47,1,X,space,0.3294,,,,,,,,,,,,,,
,,,,,,,,,,,,,,,PUM19K,001,PUM19K,2024-03-06_08h24.47.279,Trial go no go,2020.2.10,Win32,60,,,,space,1,0,7,7,38,1,X,space,0.3681,,,,,,,,,,,,,,
,,,,,,,,,,,,,,,PUM19K,001,PUM19K,2024-03-06_08h24.47.279,Trial go no go,2020.2.10,Win32,60,,,,,1,0,8,8,44,1,F,none,,,,,,,,,,,,,,,
,,,,,,,,,,,,,,,PUM19K,001,PUM19K,2024-03-06_08h24.47.279,Trial go no go,2020.2.10,Win32,60,,,,space,1,0,9,9,27,1,X,space,0.3173,,,,,,,,,,,,,,
,,,,,,,,,,,,,,,PUM19K,001,PUM19K,2024-03-06_08h24.47.279,Trial go no go,2020.2.10,Win32,60,,,,space,1,0,10,10,45,1,X,space,0.3562,,,,,,,,,,,,,,
,,,,,,,,,,,,,,,PUM19K,001,PUM19K,2024-03-06_08h24.47.279,Trial go no go,2020.2.10,Win32,60,,,,space,1,0,11,11,11,1,X,space,0.3947,,,,,,,,,,,,,,
,,,,,,,,,,,,,,,PUM19K,001,PUM19K,2024-03-06_08h24.47.279,Trial go no go,2020.2.10,Win32,60,,,,space,0,0,12,12,14,1,Y,none,0.2896,,,,,,,,,,,,,,
,,,,,,,,,,,,,,,PUM19K,001,PUM19K,2024-03-06_08h24.47.279,Trial go no go,2020.2.10,Win32,60,,,,,1,0,13,13,39,1,M,none,,,,,,,,,,,,,,,
,,,,,,,,,,,,,,,PUM19K,001,PUM19K,2024-03-06_08h24.47.279,Trial go no go,2020.2.10,Win32,60,,,,space,1,0,14,14,3,1,X,space,0.3834,,,,,,,,,,,,,,
,,,,,,,,,,,,,,,PUM19K,001,PUM19K,2024-03-06_08h24.47.279,Trial go no go,2020.2.10,Win32,60,,,,space,1,0,15,15,28,1,X,space,0.584,,,,,,,,,,,,,,
,,,,,,,,,,,,,,,PUM19K,001,PUM19K,2024-03-06_08h24.47.279,Trial go no go,2020.2.10,Win32,60,,,,space,1,0,16,16,26,1,X,space,0.5736,,,,,,,,,,,,,,
,,,,,,,,,,,,,,,PUM19K,001,PUM19K,2024-03-06_08h24.47.279,Trial go no go,2020.2.10,Win32,60,,,,space,1,0,17,17,33,1,X,space,0.4683,,,,,,,,,,,,,,
,,,,,,,,,,,,,,,PUM19K,001,PUM19K,2024-03-06_08h24.47.279,Trial go no go,2020.2.10,Win32,60,,,,space,1,0,18,18,10,1,X,space,0.4116,,,,,,,,,,,,,,
,,,,,,,,,,,,,,,PUM19K,001,PUM19K,2024-03-06_08h24.47.279,Trial go no go,2020.2.10,Win32,60,,,,space,1,0,19,19,17,1,X,space,0.3228,,,,,,,,,,,,,,
,,,,,,,,,,,,,,,PUM19K,001,PUM19K,2024-03-06_08h24.47.279,Trial go no go,2020.2.10,Win32,60,,,,space,1,0,20,20,43,1,X,space,0.3456,,,,,,,,,,,,,,
,,,,,,,,,,,,,,,PUM19K,001,PUM19K,2024-03-06_08h24.47.279,Trial go no go,2020.2.10,Win32,60,,,,,1,0,21,21,49,1,E,none,,,,,,,,,,,,,,,
,,,,,,,,,,,,,,,PUM19K,001,PUM19K,2024-03-06_08h24.47.279,Trial go no go,2020.2.10,Win32,60,,,,,1,0,22,22,9,1,W,none,,,,,,,,,,,,,,,
,,,,,,,,,,,,,,,PUM19K,001,PUM19K,2024-03-06_08h24.47.279,Trial go no go,2020.2.10,Win32,60,,,,space,1,0,23,23,41,1,X,space,0.4168,,,,,,,,,,,,,,
,,,,,,,,,,,,,,,PUM19K,001,PUM19K,2024-03-06_08h24.47.279,Trial go no go,2020.2.10,Win32,60,,,,,1,0,24,24,34,1,N,none,,,,,,,,,,,,,,,
,,,,,,,,,,,,,,,PUM19K,001,PUM19K,2024-03-06_08h24.47.279,Trial go no go,2020.2.10,Win32,60,,,,space,1,0,25,25,35,1,X,space,0.3668,,,,,,,,,,,,,,
,,,,,,,,,,,,,,,PUM19K,001,PUM19K,2024-03-06_08h24.47.279,Trial go no go,2020.2.10,Win32,60,,,,,1,0,26,26,4,1,V,none,,,,,,,,,,,,,,,
,,,,,,,,,,,,,,,PUM19K,001,PUM19K,2024-03-06_08h24.47.279,Trial go no go,2020.2.10,Win32,60,,,,space,1,0,27,27,25,1,X,space,0.3503,,,,,,,,,,,,,,
,,,,,,,,,,,,,,,PUM19K,001,PUM19K,2024-03-06_08h24.47.279,Trial go no go,2020.2.10,Win32,60,,,,space,1,0,28,28,0,1,X,space,0.5003,,,,,,,,,,,,,,
,,,,,,,,,,,,,,,PUM19K,001,PUM19K,2024-03-06_08h24.47.279,Trial go no go,2020.2.10,Win32,60,,,,space,1,0,29,29,48,1,X,space,0.3778,,,,,,,,,,,,,,
,,,,,,,,,,,,,,,PUM19K,001,PUM19K,2024-03-06_08h24.47.279,Trial go no go,2020.2.10,Win32,60,,,,space,1,0,30,30,15,1,X,space,0.3363,,,,,,,,,,,,,,
,,,,,,,,,,,,,,,PUM19K,001,PUM19K,2024-03-06_08h24.47.279,Trial go no go,2020.2.10,Win32,60,,,,space,1,0,31,31,22,1,X,space,0.312,,,,,,,,,,,,,,
,,,,,,,,,,,,,,,PUM19K,001,PUM19K,2024-03-06_08h24.47.279,Trial go no go,2020.2.10,Win32,60,,,,,1,0,32,32,19,1,K,none,,,,,,,,,,,,,,,
,,,,,,,,,,,,,,,PUM19K,001,PUM19K,2024-03-06_08h24.47.279,Trial go no go,2020.2.10,Win32,60,,,,space,1,0,33,33,20,1,X,space,0.3889,,,,,,,,,,,,,,
,,,,,,,,,,,,,,,PUM19K,001,PUM19K,2024-03-06_08h24.47.279,Trial go no go,2020.2.10,Win32,60,,,,space,1,0,34,34,16,1,X,space,0.317,,,,,,,,,,,,,,
,,,,,,,,,,,,,,,PUM19K,001,PUM19K,2024-03-06_08h24.47.279,Trial go no go,2020.2.10,Win32,60,,,,space,1,0,35,35,8,1,X,space,0.3721,,,,,,,,,,,,,,
,,,,,,,,,,,,,,,PUM19K,001,PUM19K,2024-03-06_08h24.47.279,Trial go no go,2020.2.10,Win32,60,,,,space,1,0,36,36,21,1,X,space,0.3336,,,,,,,,,,,,,,
,,,,,,,,,,,,,,,PUM19K,001,PUM19K,2024-03-06_08h24.47.279,Trial go no go,2020.2.10,Win32,60,,,,space,1,0,37,37,32,1,X,space,0.3213,,,,,,,,,,,,,,
,,,,,,,,,,,,,,,PUM19K,001,PUM19K,2024-03-06_08h24.47.279,Trial go no go,2020.2.10,Win32,60,,,,space,1,0,38,38,36,1,X,space,0.329,,,,,,,,,,,,,,
,,,,,,,,,,,,,,,PUM19K,001,PUM19K,2024-03-06_08h24.47.279,Trial go no go,2020.2.10,Win32,60,,,,space,1,0,39,39,46,1,X,space,0.3351,,,,,,,,,,,,,,
,,,,,,,,,,,,,,,PUM19K,001,PUM19K,2024-03-06_08h24.47.279,Trial go no go,2020.2.10,Win32,60,,,,space,1,0,40,40,40,1,X,space,0.3262,,,,,,,,,,,,,,
,,,,,,,,,,,,,,,PUM19K,001,PUM19K,2024-03-06_08h24.47.279,Trial go no go,2020.2.10,Win32,60,,,,space,1,0,41,41,37,1,X,space,0.3335,,,,,,,,,,,,,,
,,,,,,,,,,,,,,,PUM19K,001,PUM19K,2024-03-06_08h24.47.279,Trial go no go,2020.2.10,Win32,60,,,,space,1,0,42,42,31,1,X,space,0.3084,,,,,,,,,,,,,,
,,,,,,,,,,,,,,,PUM19K,001,PUM19K,2024-03-06_08h24.47.279,Trial go no go,2020.2.10,Win32,60,,,,space,1,0,43,43,2,1,X,space,0.3168,,,,,,,,,,,,,,
,,,,,,,,,,,,,,,PUM19K,001,PUM19K,2024-03-06_08h24.47.279,Trial go no go,2020.2.10,Win32,60,,,,space,1,0,44,44,6,1,X,space,0.323,,,,,,,,,,,,,,
,,,,,,,,,,,,,,,PUM19K,001,PUM19K,2024-03-06_08h24.47.279,Trial go no go,2020.2.10,Win32,60,,,,space,1,0,45,45,18,1,X,space,0.3335,,,,,,,,,,,,,,
,,,,,,,,,,,,,,,PUM19K,001,PUM19K,2024-03-06_08h24.47.279,Trial go no go,2020.2.10,Win32,60,,,,space,1,0,46,46,23,1,X,space,0.3367,,,,,,,,,,,,,,
,,,,,,,,,,,,,,,PUM19K,001,PUM19K,2024-03-06_08h24.47.279,Trial go no go,2020.2.10,Win32,60,,,,space,1,0,47,47,42,1,X,space,0.3592,,,,,,,,,,,,,,
,,,,,,,,,,,,,,,PUM19K,001,PUM19K,2024-03-06_08h24.47.279,Trial go no go,2020.2.10,Win32,60,,,,space,1,0,48,48,5,1,X,space,0.4789,,,,,,,,,,,,,,
,,,,,,,,,,,,,,,PUM19K,001,PUM19K,2024-03-06_08h24.47.279,Trial go no go,2020.2.10,Win32,60,,,,space,1,0,49,49,30,1,X,space,0.5837,,,,,,,,,,,,,,
,,,,,,,,,,,,,,,PUM19K,001,PUM19K,2024-03-06_08h24.47.279,Trial go no go,2020.2.10,Win32,60,,,,,,,,,,,,,,z,18.0446,space,1,0.76,0,0,0,7,1,A,space,,
,,,,,,,,,,,,,,,PUM19K,001,PUM19K,2024-03-06_08h24.47.279,Trial go no go,2020.2.10,Win32,60,,,,,,,,,,,,,,,,space,1,0.3669,0,1,1,2,1,R,space,,
,,,,,,,,,,,,,,,PUM19K,001,PUM19K,2024-03-06_08h24.47.279,Trial go no go,2020.2.10,Win32,60,,,,,,,,,,,,,,,,space,1,0.2619,0,2,2,11,1,K,space,,
,,,,,,,,,,,,,,,PUM19K,001,PUM19K,2024-03-06_08h24.47.279,Trial go no go,2020.2.10,Win32,60,,,,,,,,,,,,,,,,space,1,0.4168,0,3,3,43,1,I,space,,
,,,,,,,,,,,,,,,PUM19K,001,PUM19K,2024-03-06_08h24.47.279,Trial go no go,2020.2.10,Win32,60,,,,,,,,,,,,,,,,space,1,0.3081,0,4,4,12,1,L,space,,
,,,,,,,,,,,,,,,PUM19K,001,PUM19K,2024-03-06_08h24.47.279,Trial go no go,2020.2.10,Win32,60,,,,,,,,,,,,,,,,,1,,0,5,5,4,1,X,none,,
,,,,,,,,,,,,,,,PUM19K,001,PUM19K,2024-03-06_08h24.47.279,Trial go no go,2020.2.10,Win32,60,,,,,,,,,,,,,,,,space,1,0.2742,0,6,6,42,1,Y,space,,
,,,,,,,,,,,,,,,PUM19K,001,PUM19K,2024-03-06_08h24.47.279,Trial go no go,2020.2.10,Win32,60,,,,,,,,,,,,,,,,space,1,0.3499,0,7,7,32,1,Z,space,,
,,,,,,,,,,,,,,,PUM19K,001,PUM19K,2024-03-06_08h24.47.279,Trial go no go,2020.2.10,Win32,60,,,,,,,,,,,,,,,,space,1,0.256,0,8,8,26,1,A,space,,
,,,,,,,,,,,,,,,PUM19K,001,PUM19K,2024-03-06_08h24.47.279,Trial go no go,2020.2.10,Win32,60,,,,,,,,,,,,,,,,space,1,0.3111,0,9,9,35,1,N,space,,
,,,,,,,,,,,,,,,PUM19K,001,PUM19K,2024-03-06_08h24.47.279,Trial go no go,2020.2.10,Win32,60,,,,,,,,,,,,,,,,space,0,0.2863,0,10,10,44,1,X,none,,
,,,,,,,,,,,,,,,PUM19K,001,PUM19K,2024-03-06_08h24.47.279,Trial go no go,2020.2.10,Win32,60,,,,,,,,,,,,,,,,space,1,0.4371,0,11,11,8,1,F,space,,
,,,,,,,,,,,,,,,PUM19K,001,PUM19K,2024-03-06_08h24.47.279,Trial go no go,2020.2.10,Win32,60,,,,,,,,,,,,,,,,space,1,0.428,0,12,12,6,1,I,space,,
,,,,,,,,,,,,,,,PUM19K,001,PUM19K,2024-03-06_08h24.47.279,Trial go no go,2020.2.10,Win32,60,,,,,,,,,,,,,,,,,1,,0,13,13,49,1,X,none,,
,,,,,,,,,,,,,,,PUM19K,001,PUM19K,2024-03-06_08h24.47.279,Trial go no go,2020.2.10,Win32,60,,,,,,,,,,,,,,,,space,1,0.2671,0,14,14,48,1,K,space,,
,,,,,,,,,,,,,,,PUM19K,001,PUM19K,2024-03-06_08h24.47.279,Trial go no go,2020.2.10,Win32,60,,,,,,,,,,,,,,,,space,1,0.3531,0,15,15,23,1,Y,space,,
,,,,,,,,,,,,,,,PUM19K,001,PUM19K,2024-03-06_08h24.47.279,Trial go no go,2020.2.10,Win32,60,,,,,,,,,,,,,,,,space,1,0.3167,0,16,16,21,1,R,space,,
,,,,,,,,,,,,,,,PUM19K,001,PUM19K,2024-03-06_08h24.47.279,Trial go no go,2020.2.10,Win32,60,,,,,,,,,,,,,,,,,1,,0,17,17,24,1,X,none,,
,,,,,,,,,,,,,,,PUM19K,001,PUM19K,2024-03-06_08h24.47.279,Trial go no go,2020.2.10,Win32,60,,,,,,,,,,,,,,,,space,1,0.2947,0,18,18,25,1,I,space,,
,,,,,,,,,,,,,,,PUM19K,001,PUM19K,2024-03-06_08h24.47.279,Trial go no go,2020.2.10,Win32,60,,,,,,,,,,,,,,,,space,1,0.3335,0,19,19,28,1,H,space,,
,,,,,,,,,,,,,,,PUM19K,001,PUM19K,2024-03-06_08h24.47.279,Trial go no go,2020.2.10,Win32,60,,,,,,,,,,,,,,,,space,0,0.3409,0,20,20,29,1,X,none,,
,,,,,,,,,,,,,,,PUM19K,001,PUM19K,2024-03-06_08h24.47.279,Trial go no go,2020.2.10,Win32,60,,,,,,,,,,,,,,,,space,1,0.3502,0,21,21,30,1,K,space,,
,,,,,,,,,,,,,,,PUM19K,001,PUM19K,2024-03-06_08h24.47.279,Trial go no go,2020.2.10,Win32,60,,,,,,,,,,,,,,,,,1,,0,22,22,39,1,X,none,,
,,,,,,,,,,,,,,,PUM19K,001,PUM19K,2024-03-06_08h24.47.279,Trial go no go,2020.2.10,Win32,60,,,,,,,,,,,,,,,,space,1,0.267,0,23,23,15,1,V,space,,
,,,,,,,,,,,,,,,PUM19K,001,PUM19K,2024-03-06_08h24.47.279,Trial go no go,2020.2.10,Win32,60,,,,,,,,,,,,,,,,space,1,0.4005,0,24,24,18,1,W,space,,
,,,,,,,,,,,,,,,PUM19K,001,PUM19K,2024-03-06_08h24.47.279,Trial go no go,2020.2.10,Win32,60,,,,,,,,,,,,,,,,space,1,0.4089,0,25,25,37,1,W,space,,
,,,,,,,,,,,,,,,PUM19K,001,PUM19K,2024-03-06_08h24.47.279,Trial go no go,2020.2.10,Win32,60,,,,,,,,,,,,,,,,space,1,0.5669,0,26,26,17,1,M,space,,
,,,,,,,,,,,,,,,PUM19K,001,PUM19K,2024-03-06_08h24.47.279,Trial go no go,2020.2.10,Win32,60,,,,,,,,,,,,,,,,space,1,0.3898,0,27,27,27,1,F,space,,
,,,,,,,,,,,,,,,PUM19K,001,PUM19K,2024-03-06_08h24.47.279,Trial go no go,2020.2.10,Win32,60,,,,,,,,,,,,,,,,space,1,0.3166,0,28,28,40,1,R,space,,
,,,,,,,,,,,,,,,PUM19K,001,PUM19K,2024-03-06_08h24.47.279,Trial go no go,2020.2.10,Win32,60,,,,,,,,,,,,,,,,space,1,0.3876,0,29,29,41,1,T,space,,
,,,,,,,,,,,,,,,PUM19K,001,PUM19K,2024-03-06_08h24.47.279,Trial go no go,2020.2.10,Win32,60,,,,,,,,,,,,,,,,space,1,0.3002,0,30,30,13,1,Z,space,,
,,,,,,,,,,,,,,,PUM19K,001,PUM19K,2024-03-06_08h24.47.279,Trial go no go,2020.2.10,Win32,60,,,,,,,,,,,,,,,,space,1,0.5169,0,31,31,10,1,H,space,,
,,,,,,,,,,,,,,,PUM19K,001,PUM19K,2024-03-06_08h24.47.279,Trial go no go,2020.2.10,Win32,60,,,,,,,,,,,,,,,,space,1,0.3927,0,32,32,16,1,N,space,,
,,,,,,,,,,,,,,,PUM19K,001,PUM19K,2024-03-06_08h24.47.279,Trial go no go,2020.2.10,Win32,60,,,,,,,,,,,,,,,,,1,,0,33,33,19,1,X,none,,
,,,,,,,,,,,,,,,PUM19K,001,PUM19K,2024-03-06_08h24.47.279,Trial go no go,2020.2.10,Win32,60,,,,,,,,,,,,,,,,space,1,0.3113,0,34,34,47,1,H,space,,
,,,,,,,,,,,,,,,PUM19K,001,PUM19K,2024-03-06_08h24.47.279,Trial go no go,2020.2.10,Win32,60,,,,,,,,,,,,,,,,space,1,0.3184,0,35,35,1,1,E,space,,
,,,,,,,,,,,,,,,PUM19K,001,PUM19K,2024-03-06_08h24.47.279,Trial go no go,2020.2.10,Win32,60,,,,,,,,,,,,,,,,,1,,0,36,36,9,1,X,none,,
,,,,,,,,,,,,,,,PUM19K,001,PUM19K,2024-03-06_08h24.47.279,Trial go no go,2020.2.10,Win32,60,,,,,,,,,,,,,,,,space,1,0.2682,0,37,37,45,1,A,space,,
,,,,,,,,,,,,,,,PUM19K,001,PUM19K,2024-03-06_08h24.47.279,Trial go no go,2020.2.10,Win32,60,,,,,,,,,,,,,,,,space,1,0.3234,0,38,38,38,1,E,space,,
,,,,,,,,,,,,,,,PUM19K,001,PUM19K,2024-03-06_08h24.47.279,Trial go no go,2020.2.10,Win32,60,,,,,,,,,,,,,,,,,1,,0,39,39,34,1,X,none,,
,,,,,,,,,,,,,,,PUM19K,001,PUM19K,2024-03-06_08h24.47.279,Trial go no go,2020.2.10,Win32,60,,,,,,,,,,,,,,,,space,1,0.3053,0,40,40,0,1,W,space,,
,,,,,,,,,,,,,,,PUM19K,001,PUM19K,2024-03-06_08h24.47.279,Trial go no go,2020.2.10,Win32,60,,,,,,,,,,,,,,,,space,1,0.411,0,41,41,33,1,V,space,,
,,,,,,,,,,,,,,,PUM19K,001,PUM19K,2024-03-06_08h24.47.279,Trial go no go,2020.2.10,Win32,60,,,,,,,,,,,,,,,,space,1,0.3221,0,42,42,46,1,F,space,,
,,,,,,,,,,,,,,,PUM19K,001,PUM19K,2024-03-06_08h24.47.279,Trial go no go,2020.2.10,Win32,60,,,,,,,,,,,,,,,,space,1,0.361,0,43,43,3,1,T,space,,
,,,,,,,,,,,,,,,PUM19K,001,PUM19K,2024-03-06_08h24.47.279,Trial go no go,2020.2.10,Win32,60,,,,,,,,,,,,,,,,space,1,0.2877,0,44,44,36,1,M,space,,
,,,,,,,,,,,,,,,PUM19K,001,PUM19K,2024-03-06_08h24.47.279,Trial go no go,2020.2.10,Win32,60,,,,,,,,,,,,,,,,space,1,0.3583,0,45,45,31,1,L,space,,
,,,,,,,,,,,,,,,PUM19K,001,PUM19K,2024-03-06_08h24.47.279,Trial go no go,2020.2.10,Win32,60,,,,,,,,,,,,,,,,,1,,0,46,46,14,1,X,none,,
,,,,,,,,,,,,,,,PUM19K,001,PUM19K,2024-03-06_08h24.47.279,Trial go no go,2020.2.10,Win32,60,,,,,,,,,,,,,,,,space,1,0.3397,0,47,47,22,1,T,space,,
,,,,,,,,,,,,,,,PUM19K,001,PUM19K,2024-03-06_08h24.47.279,Trial go no go,2020.2.10,Win32,60,,,,,,,,,,,,,,,,space,1,0.3338,0,48,48,5,1,Y,space,,
,,,,,,,,,,,,,,,PUM19K,001,PUM19K,2024-03-06_08h24.47.279,Trial go no go,2020.2.10,Win32,60,,,,,,,,,,,,,,,,space,1,0.3684,0,49,49,20,1,E,space,,
,,,,,,,,,,,,,,,PUM19K,001,PUM19K,2024-03-06_08h24.47.279,Trial go no go,2020.2.10,Win32,60,,,,,,,,,,,,,,,,,,,,,,,,,,space,5.9601
