resp_Welcome.keys,resp_Welcome.rt,resp_Instr_Intro.keys,resp_Instr_Intro.rt,resp_Instr_Prac1.keys,resp_Instr_Prac1.rt,resp_trial_Prac1.keys,resp_trial_Prac1.corr,resp_trial_Prac1.rt,prac_trials.thisRepN,prac_trials.thisTrialN,prac_trials.thisN,prac_trials.thisIndex,prac_trials.ran,stimulus_prac1,corrAns_prac1,participant,session,indywidualny kod,date,expName,psychopyVersion,OS,frameRate,resp_Instr_Test1.keys,resp_Instr_Test1.rt,resp_trial_Test1.keys,resp_trial_Test1.corr,resp_trial_Test1.rt,test1trial.thisRepN,test1trial.thisTrialN,test1trial.thisN,test1trial.thisIndex,test1trial.ran,stimulus_test1,corrAns_test1,resp_Instr_Test2.keys,resp_Instr_Test2.rt,key_resp_Test2.keys,key_resp_Test2.corr,test2trial.thisRepN,test2trial.thisTrialN,test2trial.thisN,test2trial.thisIndex,test2trial.ran,stimulus_test2,corrAns_test2,key_resp_Test2.rt,resp_theEnd.keys,resp_theEnd.rt
space,200.7268,space,35.3182,space,18.3734,space,1,0.6803,0,0,0,0,1,X,space,PUM13K,001,PUM13K,2024-02-22_08h26.28.600,Trial go no go,2020.2.10,Win32,60,,,,,,,,,,,,,,,,,,,,,,,,,,
,,,,,,space,1,0.3717,0,1,1,5,1,X,space,PUM13K,001,PUM13K,2024-02-22_08h26.28.600,Trial go no go,2020.2.10,Win32,60,,,,,,,,,,,,,,,,,,,,,,,,,,
,,,,,,space,1,0.5514,0,2,2,11,1,X,space,PUM13K,001,PUM13K,2024-02-22_08h26.28.600,Trial go no go,2020.2.10,Win32,60,,,,,,,,,,,,,,,,,,,,,,,,,,
,,,,,,,1,,0,3,3,14,1,K,none,PUM13K,001,PUM13K,2024-02-22_08h26.28.600,Trial go no go,2020.2.10,Win32,60,,,,,,,,,,,,,,,,,,,,,,,,,,
,,,,,,space,1,0.4567,0,4,4,2,1,X,space,PUM13K,001,PUM13K,2024-02-22_08h26.28.600,Trial go no go,2020.2.10,Win32,60,,,,,,,,,,,,,,,,,,,,,,,,,,
,,,,,,space,1,0.4257,0,5,5,8,1,X,space,PUM13K,001,PUM13K,2024-02-22_08h26.28.600,Trial go no go,2020.2.10,Win32,60,,,,,,,,,,,,,,,,,,,,,,,,,,
,,,,,,space,1,0.4026,0,6,6,13,1,X,space,PUM13K,001,PUM13K,2024-02-22_08h26.28.600,Trial go no go,2020.2.10,Win32,60,,,,,,,,,,,,,,,,,,,,,,,,,,
,,,,,,space,1,0.3514,0,7,7,12,1,X,space,PUM13K,001,PUM13K,2024-02-22_08h26.28.600,Trial go no go,2020.2.10,Win32,60,,,,,,,,,,,,,,,,,,,,,,,,,,
,,,,,,space,1,0.4523,0,8,8,3,1,X,space,PUM13K,001,PUM13K,2024-02-22_08h26.28.600,Trial go no go,2020.2.10,Win32,60,,,,,,,,,,,,,,,,,,,,,,,,,,
,,,,,,space,1,0.4265,0,9,9,7,1,X,space,PUM13K,001,PUM13K,2024-02-22_08h26.28.600,Trial go no go,2020.2.10,Win32,60,,,,,,,,,,,,,,,,,,,,,,,,,,
,,,,,,,1,,0,10,10,9,1,V,none,PUM13K,001,PUM13K,2024-02-22_08h26.28.600,Trial go no go,2020.2.10,Win32,60,,,,,,,,,,,,,,,,,,,,,,,,,,
,,,,,,,1,,0,11,11,4,1,W,none,PUM13K,001,PUM13K,2024-02-22_08h26.28.600,Trial go no go,2020.2.10,Win32,60,,,,,,,,,,,,,,,,,,,,,,,,,,
,,,,,,space,1,0.3498,0,12,12,10,1,X,space,PUM13K,001,PUM13K,2024-02-22_08h26.28.600,Trial go no go,2020.2.10,Win32,60,,,,,,,,,,,,,,,,,,,,,,,,,,
,,,,,,space,1,0.4512,0,13,13,6,1,X,space,PUM13K,001,PUM13K,2024-02-22_08h26.28.600,Trial go no go,2020.2.10,Win32,60,,,,,,,,,,,,,,,,,,,,,,,,,,
,,,,,,space,1,0.4099,0,14,14,1,1,X,space,PUM13K,001,PUM13K,2024-02-22_08h26.28.600,Trial go no go,2020.2.10,Win32,60,,,,,,,,,,,,,,,,,,,,,,,,,,
,,,,,,,,,,,,,,,,PUM13K,001,PUM13K,2024-02-22_08h26.28.600,Trial go no go,2020.2.10,Win32,60,space,8.6327,space,1,0.3976,0,0,0,43,1,X,space,,,,,,,,,,,,,,
,,,,,,,,,,,,,,,,PUM13K,001,PUM13K,2024-02-22_08h26.28.600,Trial go no go,2020.2.10,Win32,60,,,space,1,0.2444,0,1,1,3,1,X,space,,,,,,,,,,,,,,
,,,,,,,,,,,,,,,,PUM13K,001,PUM13K,2024-02-22_08h26.28.600,Trial go no go,2020.2.10,Win32,60,,,space,0,0.2412,0,2,2,9,1,W,none,,,,,,,,,,,,,,
,,,,,,,,,,,,,,,,PUM13K,001,PUM13K,2024-02-22_08h26.28.600,Trial go no go,2020.2.10,Win32,60,,,space,1,0.4514,0,3,3,11,1,X,space,,,,,,,,,,,,,,
,,,,,,,,,,,,,,,,PUM13K,001,PUM13K,2024-02-22_08h26.28.600,Trial go no go,2020.2.10,Win32,60,,,space,1,0.3928,0,4,4,38,1,X,space,,,,,,,,,,,,,,
,,,,,,,,,,,,,,,,PUM13K,001,PUM13K,2024-02-22_08h26.28.600,Trial go no go,2020.2.10,Win32,60,,,space,1,0.2946,0,5,5,28,1,X,space,,,,,,,,,,,,,,
,,,,,,,,,,,,,,,,PUM13K,001,PUM13K,2024-02-22_08h26.28.600,Trial go no go,2020.2.10,Win32,60,,,,1,,0,6,6,39,1,M,none,,,,,,,,,,,,,,
,,,,,,,,,,,,,,,,PUM13K,001,PUM13K,2024-02-22_08h26.28.600,Trial go no go,2020.2.10,Win32,60,,,space,1,0.2919,0,7,7,47,1,X,space,,,,,,,,,,,,,,
,,,,,,,,,,,,,,,,PUM13K,001,PUM13K,2024-02-22_08h26.28.600,Trial go no go,2020.2.10,Win32,60,,,space,1,0.3099,0,8,8,30,1,X,space,,,,,,,,,,,,,,
,,,,,,,,,,,,,,,,PUM13K,001,PUM13K,2024-02-22_08h26.28.600,Trial go no go,2020.2.10,Win32,60,,,space,1,0.2924,0,9,9,20,1,X,space,,,,,,,,,,,,,,
,,,,,,,,,,,,,,,,PUM13K,001,PUM13K,2024-02-22_08h26.28.600,Trial go no go,2020.2.10,Win32,60,,,space,1,0.3016,0,10,10,6,1,X,space,,,,,,,,,,,,,,
,,,,,,,,,,,,,,,,PUM13K,001,PUM13K,2024-02-22_08h26.28.600,Trial go no go,2020.2.10,Win32,60,,,space,1,0.2961,0,11,11,12,1,X,space,,,,,,,,,,,,,,
,,,,,,,,,,,,,,,,PUM13K,001,PUM13K,2024-02-22_08h26.28.600,Trial go no go,2020.2.10,Win32,60,,,,1,,0,12,12,49,1,E,none,,,,,,,,,,,,,,
,,,,,,,,,,,,,,,,PUM13K,001,PUM13K,2024-02-22_08h26.28.600,Trial go no go,2020.2.10,Win32,60,,,,1,,0,13,13,34,1,N,none,,,,,,,,,,,,,,
,,,,,,,,,,,,,,,,PUM13K,001,PUM13K,2024-02-22_08h26.28.600,Trial go no go,2020.2.10,Win32,60,,,space,1,0.4191,0,14,14,46,1,X,space,,,,,,,,,,,,,,
,,,,,,,,,,,,,,,,PUM13K,001,PUM13K,2024-02-22_08h26.28.600,Trial go no go,2020.2.10,Win32,60,,,space,1,0.3421,0,15,15,26,1,X,space,,,,,,,,,,,,,,
,,,,,,,,,,,,,,,,PUM13K,001,PUM13K,2024-02-22_08h26.28.600,Trial go no go,2020.2.10,Win32,60,,,space,1,0.2434,0,16,16,31,1,X,space,,,,,,,,,,,,,,
,,,,,,,,,,,,,,,,PUM13K,001,PUM13K,2024-02-22_08h26.28.600,Trial go no go,2020.2.10,Win32,60,,,space,1,0.2822,0,17,17,25,1,X,space,,,,,,,,,,,,,,
,,,,,,,,,,,,,,,,PUM13K,001,PUM13K,2024-02-22_08h26.28.600,Trial go no go,2020.2.10,Win32,60,,,space,1,0.2259,0,18,18,5,1,X,space,,,,,,,,,,,,,,
,,,,,,,,,,,,,,,,PUM13K,001,PUM13K,2024-02-22_08h26.28.600,Trial go no go,2020.2.10,Win32,60,,,space,1,0.3,0,19,19,13,1,X,space,,,,,,,,,,,,,,
,,,,,,,,,,,,,,,,PUM13K,001,PUM13K,2024-02-22_08h26.28.600,Trial go no go,2020.2.10,Win32,60,,,space,1,0.2819,0,20,20,40,1,X,space,,,,,,,,,,,,,,
,,,,,,,,,,,,,,,,PUM13K,001,PUM13K,2024-02-22_08h26.28.600,Trial go no go,2020.2.10,Win32,60,,,space,1,0.222,0,21,21,7,1,X,space,,,,,,,,,,,,,,
,,,,,,,,,,,,,,,,PUM13K,001,PUM13K,2024-02-22_08h26.28.600,Trial go no go,2020.2.10,Win32,60,,,space,1,0.2455,0,22,22,15,1,X,space,,,,,,,,,,,,,,
,,,,,,,,,,,,,,,,PUM13K,001,PUM13K,2024-02-22_08h26.28.600,Trial go no go,2020.2.10,Win32,60,,,space,1,0.2093,0,23,23,41,1,X,space,,,,,,,,,,,,,,
,,,,,,,,,,,,,,,,PUM13K,001,PUM13K,2024-02-22_08h26.28.600,Trial go no go,2020.2.10,Win32,60,,,space,1,0.24,0,24,24,0,1,X,space,,,,,,,,,,,,,,
,,,,,,,,,,,,,,,,PUM13K,001,PUM13K,2024-02-22_08h26.28.600,Trial go no go,2020.2.10,Win32,60,,,space,0,0.2277,0,25,25,24,1,H,none,,,,,,,,,,,,,,
,,,,,,,,,,,,,,,,PUM13K,001,PUM13K,2024-02-22_08h26.28.600,Trial go no go,2020.2.10,Win32,60,,,space,1,0.6169,0,26,26,8,1,X,space,,,,,,,,,,,,,,
,,,,,,,,,,,,,,,,PUM13K,001,PUM13K,2024-02-22_08h26.28.600,Trial go no go,2020.2.10,Win32,60,,,space,1,0.3953,0,27,27,33,1,X,space,,,,,,,,,,,,,,
,,,,,,,,,,,,,,,,PUM13K,001,PUM13K,2024-02-22_08h26.28.600,Trial go no go,2020.2.10,Win32,60,,,,1,,0,28,28,19,1,K,none,,,,,,,,,,,,,,
,,,,,,,,,,,,,,,,PUM13K,001,PUM13K,2024-02-22_08h26.28.600,Trial go no go,2020.2.10,Win32,60,,,space,1,0.3148,0,29,29,37,1,X,space,,,,,,,,,,,,,,
,,,,,,,,,,,,,,,,PUM13K,001,PUM13K,2024-02-22_08h26.28.600,Trial go no go,2020.2.10,Win32,60,,,space,1,0.3404,0,30,30,48,1,X,space,,,,,,,,,,,,,,
,,,,,,,,,,,,,,,,PUM13K,001,PUM13K,2024-02-22_08h26.28.600,Trial go no go,2020.2.10,Win32,60,,,,1,,0,31,31,44,1,F,none,,,,,,,,,,,,,,
,,,,,,,,,,,,,,,,PUM13K,001,PUM13K,2024-02-22_08h26.28.600,Trial go no go,2020.2.10,Win32,60,,,space,1,0.333,0,32,32,2,1,X,space,,,,,,,,,,,,,,
,,,,,,,,,,,,,,,,PUM13K,001,PUM13K,2024-02-22_08h26.28.600,Trial go no go,2020.2.10,Win32,60,,,space,1,0.376,0,33,33,36,1,X,space,,,,,,,,,,,,,,
,,,,,,,,,,,,,,,,PUM13K,001,PUM13K,2024-02-22_08h26.28.600,Trial go no go,2020.2.10,Win32,60,,,space,1,0.3171,0,34,34,21,1,X,space,,,,,,,,,,,,,,
,,,,,,,,,,,,,,,,PUM13K,001,PUM13K,2024-02-22_08h26.28.600,Trial go no go,2020.2.10,Win32,60,,,space,1,0.2711,0,35,35,27,1,X,space,,,,,,,,,,,,,,
,,,,,,,,,,,,,,,,PUM13K,001,PUM13K,2024-02-22_08h26.28.600,Trial go no go,2020.2.10,Win32,60,,,space,1,0.2923,0,36,36,45,1,X,space,,,,,,,,,,,,,,
,,,,,,,,,,,,,,,,PUM13K,001,PUM13K,2024-02-22_08h26.28.600,Trial go no go,2020.2.10,Win32,60,,,space,1,0.2533,0,37,37,32,1,X,space,,,,,,,,,,,,,,
,,,,,,,,,,,,,,,,PUM13K,001,PUM13K,2024-02-22_08h26.28.600,Trial go no go,2020.2.10,Win32,60,,,space,1,0.2458,0,38,38,35,1,X,space,,,,,,,,,,,,,,
,,,,,,,,,,,,,,,,PUM13K,001,PUM13K,2024-02-22_08h26.28.600,Trial go no go,2020.2.10,Win32,60,,,space,0,0.2333,0,39,39,29,1,T,none,,,,,,,,,,,,,,
,,,,,,,,,,,,,,,,PUM13K,001,PUM13K,2024-02-22_08h26.28.600,Trial go no go,2020.2.10,Win32,60,,,space,1,0.4436,0,40,40,23,1,X,space,,,,,,,,,,,,,,
,,,,,,,,,,,,,,,,PUM13K,001,PUM13K,2024-02-22_08h26.28.600,Trial go no go,2020.2.10,Win32,60,,,space,1,0.4486,0,41,41,16,1,X,space,,,,,,,,,,,,,,
,,,,,,,,,,,,,,,,PUM13K,001,PUM13K,2024-02-22_08h26.28.600,Trial go no go,2020.2.10,Win32,60,,,space,1,0.2933,0,42,42,18,1,X,space,,,,,,,,,,,,,,
,,,,,,,,,,,,,,,,PUM13K,001,PUM13K,2024-02-22_08h26.28.600,Trial go no go,2020.2.10,Win32,60,,,space,1,0.2794,0,43,43,17,1,X,space,,,,,,,,,,,,,,
,,,,,,,,,,,,,,,,PUM13K,001,PUM13K,2024-02-22_08h26.28.600,Trial go no go,2020.2.10,Win32,60,,,space,1,0.2844,0,44,44,10,1,X,space,,,,,,,,,,,,,,
,,,,,,,,,,,,,,,,PUM13K,001,PUM13K,2024-02-22_08h26.28.600,Trial go no go,2020.2.10,Win32,60,,,,1,,0,45,45,4,1,V,none,,,,,,,,,,,,,,
,,,,,,,,,,,,,,,,PUM13K,001,PUM13K,2024-02-22_08h26.28.600,Trial go no go,2020.2.10,Win32,60,,,space,1,0.2377,0,46,46,22,1,X,space,,,,,,,,,,,,,,
,,,,,,,,,,,,,,,,PUM13K,001,PUM13K,2024-02-22_08h26.28.600,Trial go no go,2020.2.10,Win32,60,,,,1,,0,47,47,14,1,Y,none,,,,,,,,,,,,,,
,,,,,,,,,,,,,,,,PUM13K,001,PUM13K,2024-02-22_08h26.28.600,Trial go no go,2020.2.10,Win32,60,,,space,1,0.2335,0,48,48,42,1,X,space,,,,,,,,,,,,,,
,,,,,,,,,,,,,,,,PUM13K,001,PUM13K,2024-02-22_08h26.28.600,Trial go no go,2020.2.10,Win32,60,,,space,1,0.3235,0,49,49,1,1,X,space,,,,,,,,,,,,,,
,,,,,,,,,,,,,,,,PUM13K,001,PUM13K,2024-02-22_08h26.28.600,Trial go no go,2020.2.10,Win32,60,,,,,,,,,,,,,z,19.2634,,1,0,0,0,29,1,X,none,,,
,,,,,,,,,,,,,,,,PUM13K,001,PUM13K,2024-02-22_08h26.28.600,Trial go no go,2020.2.10,Win32,60,,,,,,,,,,,,,,,space,1,0,1,1,0,1,W,space,0.3842,,
,,,,,,,,,,,,,,,,PUM13K,001,PUM13K,2024-02-22_08h26.28.600,Trial go no go,2020.2.10,Win32,60,,,,,,,,,,,,,,,,1,0,2,2,4,1,X,none,,,
,,,,,,,,,,,,,,,,PUM13K,001,PUM13K,2024-02-22_08h26.28.600,Trial go no go,2020.2.10,Win32,60,,,,,,,,,,,,,,,space,1,0,3,3,36,1,M,space,0.3424,,
,,,,,,,,,,,,,,,,PUM13K,001,PUM13K,2024-02-22_08h26.28.600,Trial go no go,2020.2.10,Win32,60,,,,,,,,,,,,,,,space,1,0,4,4,42,1,Y,space,0.4261,,
,,,,,,,,,,,,,,,,PUM13K,001,PUM13K,2024-02-22_08h26.28.600,Trial go no go,2020.2.10,Win32,60,,,,,,,,,,,,,,,space,1,0,5,5,12,1,L,space,0.3215,,
,,,,,,,,,,,,,,,,PUM13K,001,PUM13K,2024-02-22_08h26.28.600,Trial go no go,2020.2.10,Win32,60,,,,,,,,,,,,,,,space,1,0,6,6,31,1,L,space,0.3012,,
,,,,,,,,,,,,,,,,PUM13K,001,PUM13K,2024-02-22_08h26.28.600,Trial go no go,2020.2.10,Win32,60,,,,,,,,,,,,,,,space,1,0,7,7,15,1,V,space,0.484,,
,,,,,,,,,,,,,,,,PUM13K,001,PUM13K,2024-02-22_08h26.28.600,Trial go no go,2020.2.10,Win32,60,,,,,,,,,,,,,,,space,1,0,8,8,40,1,R,space,0.3839,,
,,,,,,,,,,,,,,,,PUM13K,001,PUM13K,2024-02-22_08h26.28.600,Trial go no go,2020.2.10,Win32,60,,,,,,,,,,,,,,,,1,0,9,9,44,1,X,none,,,
,,,,,,,,,,,,,,,,PUM13K,001,PUM13K,2024-02-22_08h26.28.600,Trial go no go,2020.2.10,Win32,60,,,,,,,,,,,,,,,space,1,0,10,10,26,1,A,space,0.2676,,
,,,,,,,,,,,,,,,,PUM13K,001,PUM13K,2024-02-22_08h26.28.600,Trial go no go,2020.2.10,Win32,60,,,,,,,,,,,,,,,space,1,0,11,11,17,1,M,space,0.5254,,
,,,,,,,,,,,,,,,,PUM13K,001,PUM13K,2024-02-22_08h26.28.600,Trial go no go,2020.2.10,Win32,60,,,,,,,,,,,,,,,,1,0,12,12,39,1,X,none,,,
,,,,,,,,,,,,,,,,PUM13K,001,PUM13K,2024-02-22_08h26.28.600,Trial go no go,2020.2.10,Win32,60,,,,,,,,,,,,,,,,1,0,13,13,9,1,X,none,,,
,,,,,,,,,,,,,,,,PUM13K,001,PUM13K,2024-02-22_08h26.28.600,Trial go no go,2020.2.10,Win32,60,,,,,,,,,,,,,,,space,1,0,14,14,46,1,F,space,0.3314,,
,,,,,,,,,,,,,,,,PUM13K,001,PUM13K,2024-02-22_08h26.28.600,Trial go no go,2020.2.10,Win32,60,,,,,,,,,,,,,,,space,1,0,15,15,41,1,T,space,0.3302,,
,,,,,,,,,,,,,,,,PUM13K,001,PUM13K,2024-02-22_08h26.28.600,Trial go no go,2020.2.10,Win32,60,,,,,,,,,,,,,,,,1,0,16,16,19,1,X,none,,,
,,,,,,,,,,,,,,,,PUM13K,001,PUM13K,2024-02-22_08h26.28.600,Trial go no go,2020.2.10,Win32,60,,,,,,,,,,,,,,,space,1,0,17,17,32,1,Z,space,0.3046,,
,,,,,,,,,,,,,,,,PUM13K,001,PUM13K,2024-02-22_08h26.28.600,Trial go no go,2020.2.10,Win32,60,,,,,,,,,,,,,,,space,1,0,18,18,33,1,V,space,0.4508,,
,,,,,,,,,,,,,,,,PUM13K,001,PUM13K,2024-02-22_08h26.28.600,Trial go no go,2020.2.10,Win32,60,,,,,,,,,,,,,,,space,1,0,19,19,1,1,E,space,0.3675,,
,,,,,,,,,,,,,,,,PUM13K,001,PUM13K,2024-02-22_08h26.28.600,Trial go no go,2020.2.10,Win32,60,,,,,,,,,,,,,,,space,1,0,20,20,6,1,I,space,0.4589,,
,,,,,,,,,,,,,,,,PUM13K,001,PUM13K,2024-02-22_08h26.28.600,Trial go no go,2020.2.10,Win32,60,,,,,,,,,,,,,,,space,1,0,21,21,28,1,H,space,0.3087,,
,,,,,,,,,,,,,,,,PUM13K,001,PUM13K,2024-02-22_08h26.28.600,Trial go no go,2020.2.10,Win32,60,,,,,,,,,,,,,,,space,1,0,22,22,7,1,A,space,0.2352,,
,,,,,,,,,,,,,,,,PUM13K,001,PUM13K,2024-02-22_08h26.28.600,Trial go no go,2020.2.10,Win32,60,,,,,,,,,,,,,,,space,1,0,23,23,18,1,W,space,0.2604,,
,,,,,,,,,,,,,,,,PUM13K,001,PUM13K,2024-02-22_08h26.28.600,Trial go no go,2020.2.10,Win32,60,,,,,,,,,,,,,,,space,0,0,24,24,49,1,X,none,0.2695,,
,,,,,,,,,,,,,,,,PUM13K,001,PUM13K,2024-02-22_08h26.28.600,Trial go no go,2020.2.10,Win32,60,,,,,,,,,,,,,,,space,1,0,25,25,3,1,T,space,0.4707,,
,,,,,,,,,,,,,,,,PUM13K,001,PUM13K,2024-02-22_08h26.28.600,Trial go no go,2020.2.10,Win32,60,,,,,,,,,,,,,,,space,1,0,26,26,30,1,K,space,0.4586,,
,,,,,,,,,,,,,,,,PUM13K,001,PUM13K,2024-02-22_08h26.28.600,Trial go no go,2020.2.10,Win32,60,,,,,,,,,,,,,,,space,1,0,27,27,43,1,I,space,0.4261,,
,,,,,,,,,,,,,,,,PUM13K,001,PUM13K,2024-02-22_08h26.28.600,Trial go no go,2020.2.10,Win32,60,,,,,,,,,,,,,,,space,1,0,28,28,21,1,R,space,0.4088,,
,,,,,,,,,,,,,,,,PUM13K,001,PUM13K,2024-02-22_08h26.28.600,Trial go no go,2020.2.10,Win32,60,,,,,,,,,,,,,,,,1,0,29,29,24,1,X,none,,,
,,,,,,,,,,,,,,,,PUM13K,001,PUM13K,2024-02-22_08h26.28.600,Trial go no go,2020.2.10,Win32,60,,,,,,,,,,,,,,,space,1,0,30,30,35,1,N,space,0.3062,,
,,,,,,,,,,,,,,,,PUM13K,001,PUM13K,2024-02-22_08h26.28.600,Trial go no go,2020.2.10,Win32,60,,,,,,,,,,,,,,,space,1,0,31,31,16,1,N,space,0.3947,,
,,,,,,,,,,,,,,,,PUM13K,001,PUM13K,2024-02-22_08h26.28.600,Trial go no go,2020.2.10,Win32,60,,,,,,,,,,,,,,,,1,0,32,32,14,1,X,none,,,
,,,,,,,,,,,,,,,,PUM13K,001,PUM13K,2024-02-22_08h26.28.600,Trial go no go,2020.2.10,Win32,60,,,,,,,,,,,,,,,space,1,0,33,33,38,1,E,space,0.2834,,
,,,,,,,,,,,,,,,,PUM13K,001,PUM13K,2024-02-22_08h26.28.600,Trial go no go,2020.2.10,Win32,60,,,,,,,,,,,,,,,space,1,0,34,34,8,1,F,space,0.3213,,
,,,,,,,,,,,,,,,,PUM13K,001,PUM13K,2024-02-22_08h26.28.600,Trial go no go,2020.2.10,Win32,60,,,,,,,,,,,,,,,space,1,0,35,35,48,1,K,space,0.5501,,
,,,,,,,,,,,,,,,,PUM13K,001,PUM13K,2024-02-22_08h26.28.600,Trial go no go,2020.2.10,Win32,60,,,,,,,,,,,,,,,space,1,0,36,36,11,1,K,space,0.3077,,
,,,,,,,,,,,,,,,,PUM13K,001,PUM13K,2024-02-22_08h26.28.600,Trial go no go,2020.2.10,Win32,60,,,,,,,,,,,,,,,space,1,0,37,37,37,1,W,space,0.2835,,
,,,,,,,,,,,,,,,,PUM13K,001,PUM13K,2024-02-22_08h26.28.600,Trial go no go,2020.2.10,Win32,60,,,,,,,,,,,,,,,space,1,0,38,38,23,1,Y,space,0.2917,,
,,,,,,,,,,,,,,,,PUM13K,001,PUM13K,2024-02-22_08h26.28.600,Trial go no go,2020.2.10,Win32,60,,,,,,,,,,,,,,,space,1,0,39,39,13,1,Z,space,0.467,,
,,,,,,,,,,,,,,,,PUM13K,001,PUM13K,2024-02-22_08h26.28.600,Trial go no go,2020.2.10,Win32,60,,,,,,,,,,,,,,,space,1,0,40,40,10,1,H,space,0.3336,,
,,,,,,,,,,,,,,,,PUM13K,001,PUM13K,2024-02-22_08h26.28.600,Trial go no go,2020.2.10,Win32,60,,,,,,,,,,,,,,,space,1,0,41,41,45,1,A,space,0.3187,,
,,,,,,,,,,,,,,,,PUM13K,001,PUM13K,2024-02-22_08h26.28.600,Trial go no go,2020.2.10,Win32,60,,,,,,,,,,,,,,,space,1,0,42,42,22,1,T,space,0.2922,,
,,,,,,,,,,,,,,,,PUM13K,001,PUM13K,2024-02-22_08h26.28.600,Trial go no go,2020.2.10,Win32,60,,,,,,,,,,,,,,,space,1,0,43,43,5,1,Y,space,0.2761,,
,,,,,,,,,,,,,,,,PUM13K,001,PUM13K,2024-02-22_08h26.28.600,Trial go no go,2020.2.10,Win32,60,,,,,,,,,,,,,,,space,1,0,44,44,25,1,I,space,0.3093,,
,,,,,,,,,,,,,,,,PUM13K,001,PUM13K,2024-02-22_08h26.28.600,Trial go no go,2020.2.10,Win32,60,,,,,,,,,,,,,,,space,1,0,45,45,27,1,F,space,0.317,,
,,,,,,,,,,,,,,,,PUM13K,001,PUM13K,2024-02-22_08h26.28.600,Trial go no go,2020.2.10,Win32,60,,,,,,,,,,,,,,,space,1,0,46,46,20,1,E,space,0.3056,,
,,,,,,,,,,,,,,,,PUM13K,001,PUM13K,2024-02-22_08h26.28.600,Trial go no go,2020.2.10,Win32,60,,,,,,,,,,,,,,,space,1,0,47,47,47,1,H,space,0.2423,,
,,,,,,,,,,,,,,,,PUM13K,001,PUM13K,2024-02-22_08h26.28.600,Trial go no go,2020.2.10,Win32,60,,,,,,,,,,,,,,,space,1,0,48,48,2,1,R,space,0.2659,,
,,,,,,,,,,,,,,,,PUM13K,001,PUM13K,2024-02-22_08h26.28.600,Trial go no go,2020.2.10,Win32,60,,,,,,,,,,,,,,,,1,0,49,49,34,1,X,none,,,
,,,,,,,,,,,,,,,,PUM13K,001,PUM13K,2024-02-22_08h26.28.600,Trial go no go,2020.2.10,Win32,60,,,,,,,,,,,,,,,,,,,,,,,,,space,35.0205
