resp_Welcome.keys,resp_Welcome.rt,resp_Instr_Intro.keys,resp_Instr_Intro.rt,resp_Instr_Prac1.keys,resp_Instr_Prac1.rt,resp_trial_Prac1.keys,resp_trial_Prac1.corr,prac_trials.thisRepN,prac_trials.thisTrialN,prac_trials.thisN,prac_trials.thisIndex,prac_trials.ran,stimulus_prac1,corrAns_prac1,participant,session,indywidualny kod,date,expName,psychopyVersion,OS,frameRate,resp_trial_Prac1.rt,resp_Instr_Test1.keys,resp_Instr_Test1.rt,resp_trial_Test1.keys,resp_trial_Test1.corr,resp_trial_Test1.rt,test1trial.thisRepN,test1trial.thisTrialN,test1trial.thisN,test1trial.thisIndex,test1trial.ran,stimulus_test1,corrAns_test1,resp_Instr_Test2.keys,resp_Instr_Test2.rt,key_resp_Test2.keys,key_resp_Test2.corr,test2trial.thisRepN,test2trial.thisTrialN,test2trial.thisN,test2trial.thisIndex,test2trial.ran,stimulus_test2,corrAns_test2,key_resp_Test2.rt,resp_theEnd.keys,resp_theEnd.rt
space,29.4511,space,23.7401,space,10.662,,0,0,0,0,13,1,X,space,PUM21B,001,PUM21B,2023-11-28_09h03.53.125,Trial go no go,2020.2.10,Win32,60,,,,,,,,,,,,,,,,,,,,,,,,,,,
,,,,,,space,1,0,1,1,10,1,X,space,PUM21B,001,PUM21B,2023-11-28_09h03.53.125,Trial go no go,2020.2.10,Win32,60,0.4248,,,,,,,,,,,,,,,,,,,,,,,,,,
,,,,,,space,1,0,2,2,12,1,X,space,PUM21B,001,PUM21B,2023-11-28_09h03.53.125,Trial go no go,2020.2.10,Win32,60,0.3784,,,,,,,,,,,,,,,,,,,,,,,,,,
,,,,,,space,1,0,3,3,8,1,X,space,PUM21B,001,PUM21B,2023-11-28_09h03.53.125,Trial go no go,2020.2.10,Win32,60,0.462,,,,,,,,,,,,,,,,,,,,,,,,,,
,,,,,,,1,0,4,4,9,1,V,none,PUM21B,001,PUM21B,2023-11-28_09h03.53.125,Trial go no go,2020.2.10,Win32,60,,,,,,,,,,,,,,,,,,,,,,,,,,,
,,,,,,space,1,0,5,5,0,1,X,space,PUM21B,001,PUM21B,2023-11-28_09h03.53.125,Trial go no go,2020.2.10,Win32,60,0.5771,,,,,,,,,,,,,,,,,,,,,,,,,,
,,,,,,space,1,0,6,6,1,1,X,space,PUM21B,001,PUM21B,2023-11-28_09h03.53.125,Trial go no go,2020.2.10,Win32,60,0.4598,,,,,,,,,,,,,,,,,,,,,,,,,,
,,,,,,,1,0,7,7,4,1,W,none,PUM21B,001,PUM21B,2023-11-28_09h03.53.125,Trial go no go,2020.2.10,Win32,60,,,,,,,,,,,,,,,,,,,,,,,,,,,
,,,,,,space,1,0,8,8,6,1,X,space,PUM21B,001,PUM21B,2023-11-28_09h03.53.125,Trial go no go,2020.2.10,Win32,60,0.4684,,,,,,,,,,,,,,,,,,,,,,,,,,
,,,,,,space,1,0,9,9,3,1,X,space,PUM21B,001,PUM21B,2023-11-28_09h03.53.125,Trial go no go,2020.2.10,Win32,60,0.4734,,,,,,,,,,,,,,,,,,,,,,,,,,
,,,,,,space,1,0,10,10,11,1,X,space,PUM21B,001,PUM21B,2023-11-28_09h03.53.125,Trial go no go,2020.2.10,Win32,60,0.4621,,,,,,,,,,,,,,,,,,,,,,,,,,
,,,,,,space,1,0,11,11,5,1,X,space,PUM21B,001,PUM21B,2023-11-28_09h03.53.125,Trial go no go,2020.2.10,Win32,60,0.6142,,,,,,,,,,,,,,,,,,,,,,,,,,
,,,,,,,1,0,12,12,14,1,K,none,PUM21B,001,PUM21B,2023-11-28_09h03.53.125,Trial go no go,2020.2.10,Win32,60,,,,,,,,,,,,,,,,,,,,,,,,,,,
,,,,,,space,1,0,13,13,7,1,X,space,PUM21B,001,PUM21B,2023-11-28_09h03.53.125,Trial go no go,2020.2.10,Win32,60,0.4826,,,,,,,,,,,,,,,,,,,,,,,,,,
,,,,,,space,1,0,14,14,2,1,X,space,PUM21B,001,PUM21B,2023-11-28_09h03.53.125,Trial go no go,2020.2.10,Win32,60,0.5575,,,,,,,,,,,,,,,,,,,,,,,,,,
,,,,,,,,,,,,,,,PUM21B,001,PUM21B,2023-11-28_09h03.53.125,Trial go no go,2020.2.10,Win32,60,,space,7.0873,space,1,0.7501,0,0,0,26,1,X,space,,,,,,,,,,,,,,
,,,,,,,,,,,,,,,PUM21B,001,PUM21B,2023-11-28_09h03.53.125,Trial go no go,2020.2.10,Win32,60,,,,,1,,0,1,1,39,1,M,none,,,,,,,,,,,,,,
,,,,,,,,,,,,,,,PUM21B,001,PUM21B,2023-11-28_09h03.53.125,Trial go no go,2020.2.10,Win32,60,,,,space,1,0.2469,0,2,2,36,1,X,space,,,,,,,,,,,,,,
,,,,,,,,,,,,,,,PUM21B,001,PUM21B,2023-11-28_09h03.53.125,Trial go no go,2020.2.10,Win32,60,,,,space,0,0.2586,0,3,3,49,1,E,none,,,,,,,,,,,,,,
,,,,,,,,,,,,,,,PUM21B,001,PUM21B,2023-11-28_09h03.53.125,Trial go no go,2020.2.10,Win32,60,,,,space,0,0.1896,0,4,4,44,1,F,none,,,,,,,,,,,,,,
,,,,,,,,,,,,,,,PUM21B,001,PUM21B,2023-11-28_09h03.53.125,Trial go no go,2020.2.10,Win32,60,,,,,0,,0,5,5,18,1,X,space,,,,,,,,,,,,,,
,,,,,,,,,,,,,,,PUM21B,001,PUM21B,2023-11-28_09h03.53.125,Trial go no go,2020.2.10,Win32,60,,,,space,1,0.2231,0,6,6,38,1,X,space,,,,,,,,,,,,,,
,,,,,,,,,,,,,,,PUM21B,001,PUM21B,2023-11-28_09h03.53.125,Trial go no go,2020.2.10,Win32,60,,,,space,1,0.2799,0,7,7,11,1,X,space,,,,,,,,,,,,,,
,,,,,,,,,,,,,,,PUM21B,001,PUM21B,2023-11-28_09h03.53.125,Trial go no go,2020.2.10,Win32,60,,,,space,1,0.2311,0,8,8,27,1,X,space,,,,,,,,,,,,,,
,,,,,,,,,,,,,,,PUM21B,001,PUM21B,2023-11-28_09h03.53.125,Trial go no go,2020.2.10,Win32,60,,,,,1,,0,9,9,9,1,W,none,,,,,,,,,,,,,,
,,,,,,,,,,,,,,,PUM21B,001,PUM21B,2023-11-28_09h03.53.125,Trial go no go,2020.2.10,Win32,60,,,,space,1,0.2851,0,10,10,37,1,X,space,,,,,,,,,,,,,,
,,,,,,,,,,,,,,,PUM21B,001,PUM21B,2023-11-28_09h03.53.125,Trial go no go,2020.2.10,Win32,60,,,,space,1,0.3476,0,11,11,5,1,X,space,,,,,,,,,,,,,,
,,,,,,,,,,,,,,,PUM21B,001,PUM21B,2023-11-28_09h03.53.125,Trial go no go,2020.2.10,Win32,60,,,,space,1,0.3784,0,12,12,33,1,X,space,,,,,,,,,,,,,,
,,,,,,,,,,,,,,,PUM21B,001,PUM21B,2023-11-28_09h03.53.125,Trial go no go,2020.2.10,Win32,60,,,,space,1,0.345,0,13,13,15,1,X,space,,,,,,,,,,,,,,
,,,,,,,,,,,,,,,PUM21B,001,PUM21B,2023-11-28_09h03.53.125,Trial go no go,2020.2.10,Win32,60,,,,space,1,0.3013,0,14,14,20,1,X,space,,,,,,,,,,,,,,
,,,,,,,,,,,,,,,PUM21B,001,PUM21B,2023-11-28_09h03.53.125,Trial go no go,2020.2.10,Win32,60,,,,space,1,0.2991,0,15,15,25,1,X,space,,,,,,,,,,,,,,
,,,,,,,,,,,,,,,PUM21B,001,PUM21B,2023-11-28_09h03.53.125,Trial go no go,2020.2.10,Win32,60,,,,space,1,0.2301,0,16,16,7,1,X,space,,,,,,,,,,,,,,
,,,,,,,,,,,,,,,PUM21B,001,PUM21B,2023-11-28_09h03.53.125,Trial go no go,2020.2.10,Win32,60,,,,space,1,0.2162,0,17,17,22,1,X,space,,,,,,,,,,,,,,
,,,,,,,,,,,,,,,PUM21B,001,PUM21B,2023-11-28_09h03.53.125,Trial go no go,2020.2.10,Win32,60,,,,space,1,0.2448,0,18,18,21,1,X,space,,,,,,,,,,,,,,
,,,,,,,,,,,,,,,PUM21B,001,PUM21B,2023-11-28_09h03.53.125,Trial go no go,2020.2.10,Win32,60,,,,space,1,0.219,0,19,19,16,1,X,space,,,,,,,,,,,,,,
,,,,,,,,,,,,,,,PUM21B,001,PUM21B,2023-11-28_09h03.53.125,Trial go no go,2020.2.10,Win32,60,,,,space,1,0.1753,0,20,20,30,1,X,space,,,,,,,,,,,,,,
,,,,,,,,,,,,,,,PUM21B,001,PUM21B,2023-11-28_09h03.53.125,Trial go no go,2020.2.10,Win32,60,,,,space,0,0.0514,0,21,21,14,1,Y,none,,,,,,,,,,,,,,
,,,,,,,,,,,,,,,PUM21B,001,PUM21B,2023-11-28_09h03.53.125,Trial go no go,2020.2.10,Win32,60,,,,,0,,0,22,22,2,1,X,space,,,,,,,,,,,,,,
,,,,,,,,,,,,,,,PUM21B,001,PUM21B,2023-11-28_09h03.53.125,Trial go no go,2020.2.10,Win32,60,,,,,1,,0,23,23,34,1,N,none,,,,,,,,,,,,,,
,,,,,,,,,,,,,,,PUM21B,001,PUM21B,2023-11-28_09h03.53.125,Trial go no go,2020.2.10,Win32,60,,,,space,1,0.3898,0,24,24,31,1,X,space,,,,,,,,,,,,,,
,,,,,,,,,,,,,,,PUM21B,001,PUM21B,2023-11-28_09h03.53.125,Trial go no go,2020.2.10,Win32,60,,,,,1,,0,25,25,29,1,T,none,,,,,,,,,,,,,,
,,,,,,,,,,,,,,,PUM21B,001,PUM21B,2023-11-28_09h03.53.125,Trial go no go,2020.2.10,Win32,60,,,,,0,,0,26,26,3,1,X,space,,,,,,,,,,,,,,
,,,,,,,,,,,,,,,PUM21B,001,PUM21B,2023-11-28_09h03.53.125,Trial go no go,2020.2.10,Win32,60,,,,space,1,0.3372,0,27,27,6,1,X,space,,,,,,,,,,,,,,
,,,,,,,,,,,,,,,PUM21B,001,PUM21B,2023-11-28_09h03.53.125,Trial go no go,2020.2.10,Win32,60,,,,space,1,0.3412,0,28,28,13,1,X,space,,,,,,,,,,,,,,
,,,,,,,,,,,,,,,PUM21B,001,PUM21B,2023-11-28_09h03.53.125,Trial go no go,2020.2.10,Win32,60,,,,space,1,0.2954,0,29,29,43,1,X,space,,,,,,,,,,,,,,
,,,,,,,,,,,,,,,PUM21B,001,PUM21B,2023-11-28_09h03.53.125,Trial go no go,2020.2.10,Win32,60,,,,space,1,0.272,0,30,30,32,1,X,space,,,,,,,,,,,,,,
,,,,,,,,,,,,,,,PUM21B,001,PUM21B,2023-11-28_09h03.53.125,Trial go no go,2020.2.10,Win32,60,,,,space,1,0.2858,0,31,31,12,1,X,space,,,,,,,,,,,,,,
,,,,,,,,,,,,,,,PUM21B,001,PUM21B,2023-11-28_09h03.53.125,Trial go no go,2020.2.10,Win32,60,,,,space,1,0.225,0,32,32,28,1,X,space,,,,,,,,,,,,,,
,,,,,,,,,,,,,,,PUM21B,001,PUM21B,2023-11-28_09h03.53.125,Trial go no go,2020.2.10,Win32,60,,,,space,0,0.3019,0,33,33,4,1,V,none,,,,,,,,,,,,,,
,,,,,,,,,,,,,,,PUM21B,001,PUM21B,2023-11-28_09h03.53.125,Trial go no go,2020.2.10,Win32,60,,,,,0,,0,34,34,48,1,X,space,,,,,,,,,,,,,,
,,,,,,,,,,,,,,,PUM21B,001,PUM21B,2023-11-28_09h03.53.125,Trial go no go,2020.2.10,Win32,60,,,,space,1,0.2027,0,35,35,41,1,X,space,,,,,,,,,,,,,,
,,,,,,,,,,,,,,,PUM21B,001,PUM21B,2023-11-28_09h03.53.125,Trial go no go,2020.2.10,Win32,60,,,,space,1,0.3203,0,36,36,47,1,X,space,,,,,,,,,,,,,,
,,,,,,,,,,,,,,,PUM21B,001,PUM21B,2023-11-28_09h03.53.125,Trial go no go,2020.2.10,Win32,60,,,,space,1,0.3994,0,37,37,23,1,X,space,,,,,,,,,,,,,,
,,,,,,,,,,,,,,,PUM21B,001,PUM21B,2023-11-28_09h03.53.125,Trial go no go,2020.2.10,Win32,60,,,,space,1,0.3307,0,38,38,35,1,X,space,,,,,,,,,,,,,,
,,,,,,,,,,,,,,,PUM21B,001,PUM21B,2023-11-28_09h03.53.125,Trial go no go,2020.2.10,Win32,60,,,,space,1,0.3374,0,39,39,1,1,X,space,,,,,,,,,,,,,,
,,,,,,,,,,,,,,,PUM21B,001,PUM21B,2023-11-28_09h03.53.125,Trial go no go,2020.2.10,Win32,60,,,,space,1,0.4699,0,40,40,8,1,X,space,,,,,,,,,,,,,,
,,,,,,,,,,,,,,,PUM21B,001,PUM21B,2023-11-28_09h03.53.125,Trial go no go,2020.2.10,Win32,60,,,,space,1,0.3581,0,41,41,46,1,X,space,,,,,,,,,,,,,,
,,,,,,,,,,,,,,,PUM21B,001,PUM21B,2023-11-28_09h03.53.125,Trial go no go,2020.2.10,Win32,60,,,,space,1,0.3552,0,42,42,45,1,X,space,,,,,,,,,,,,,,
,,,,,,,,,,,,,,,PUM21B,001,PUM21B,2023-11-28_09h03.53.125,Trial go no go,2020.2.10,Win32,60,,,,space,1,0.3347,0,43,43,17,1,X,space,,,,,,,,,,,,,,
,,,,,,,,,,,,,,,PUM21B,001,PUM21B,2023-11-28_09h03.53.125,Trial go no go,2020.2.10,Win32,60,,,,,1,,0,44,44,19,1,K,none,,,,,,,,,,,,,,
,,,,,,,,,,,,,,,PUM21B,001,PUM21B,2023-11-28_09h03.53.125,Trial go no go,2020.2.10,Win32,60,,,,space,1,0.3226,0,45,45,0,1,X,space,,,,,,,,,,,,,,
,,,,,,,,,,,,,,,PUM21B,001,PUM21B,2023-11-28_09h03.53.125,Trial go no go,2020.2.10,Win32,60,,,,space,1,0.5104,0,46,46,40,1,X,space,,,,,,,,,,,,,,
,,,,,,,,,,,,,,,PUM21B,001,PUM21B,2023-11-28_09h03.53.125,Trial go no go,2020.2.10,Win32,60,,,,,1,,0,47,47,24,1,H,none,,,,,,,,,,,,,,
,,,,,,,,,,,,,,,PUM21B,001,PUM21B,2023-11-28_09h03.53.125,Trial go no go,2020.2.10,Win32,60,,,,space,1,0.4484,0,48,48,10,1,X,space,,,,,,,,,,,,,,
,,,,,,,,,,,,,,,PUM21B,001,PUM21B,2023-11-28_09h03.53.125,Trial go no go,2020.2.10,Win32,60,,,,space,1,0.4051,0,49,49,42,1,X,space,,,,,,,,,,,,,,
,,,,,,,,,,,,,,,PUM21B,001,PUM21B,2023-11-28_09h03.53.125,Trial go no go,2020.2.10,Win32,60,,,,,,,,,,,,,,z,7.7938,,0,0,0,0,31,1,L,space,,,
,,,,,,,,,,,,,,,PUM21B,001,PUM21B,2023-11-28_09h03.53.125,Trial go no go,2020.2.10,Win32,60,,,,,,,,,,,,,,,,space,1,0,1,1,17,1,M,space,0.4039,,
,,,,,,,,,,,,,,,PUM21B,001,PUM21B,2023-11-28_09h03.53.125,Trial go no go,2020.2.10,Win32,60,,,,,,,,,,,,,,,,space,0,0,2,2,29,1,X,none,0.2248,,
,,,,,,,,,,,,,,,PUM21B,001,PUM21B,2023-11-28_09h03.53.125,Trial go no go,2020.2.10,Win32,60,,,,,,,,,,,,,,,,space,1,0,3,3,38,1,E,space,0.2822,,
,,,,,,,,,,,,,,,PUM21B,001,PUM21B,2023-11-28_09h03.53.125,Trial go no go,2020.2.10,Win32,60,,,,,,,,,,,,,,,,space,1,0,4,4,1,1,E,space,0.2386,,
,,,,,,,,,,,,,,,PUM21B,001,PUM21B,2023-11-28_09h03.53.125,Trial go no go,2020.2.10,Win32,60,,,,,,,,,,,,,,,,space,0,0,5,5,39,1,X,none,0.2308,,
,,,,,,,,,,,,,,,PUM21B,001,PUM21B,2023-11-28_09h03.53.125,Trial go no go,2020.2.10,Win32,60,,,,,,,,,,,,,,,,space,0,0,6,6,14,1,X,none,0.3829,,
,,,,,,,,,,,,,,,PUM21B,001,PUM21B,2023-11-28_09h03.53.125,Trial go no go,2020.2.10,Win32,60,,,,,,,,,,,,,,,,,0,0,7,7,12,1,L,space,,,
,,,,,,,,,,,,,,,PUM21B,001,PUM21B,2023-11-28_09h03.53.125,Trial go no go,2020.2.10,Win32,60,,,,,,,,,,,,,,,,,1,0,8,8,44,1,X,none,,,
,,,,,,,,,,,,,,,PUM21B,001,PUM21B,2023-11-28_09h03.53.125,Trial go no go,2020.2.10,Win32,60,,,,,,,,,,,,,,,,space,1,0,9,9,20,1,E,space,0.2951,,
,,,,,,,,,,,,,,,PUM21B,001,PUM21B,2023-11-28_09h03.53.125,Trial go no go,2020.2.10,Win32,60,,,,,,,,,,,,,,,,space,1,0,10,10,26,1,A,space,0.2577,,
,,,,,,,,,,,,,,,PUM21B,001,PUM21B,2023-11-28_09h03.53.125,Trial go no go,2020.2.10,Win32,60,,,,,,,,,,,,,,,,space,1,0,11,11,48,1,K,space,0.3216,,
,,,,,,,,,,,,,,,PUM21B,001,PUM21B,2023-11-28_09h03.53.125,Trial go no go,2020.2.10,Win32,60,,,,,,,,,,,,,,,,space,1,0,12,12,21,1,R,space,0.2934,,
,,,,,,,,,,,,,,,PUM21B,001,PUM21B,2023-11-28_09h03.53.125,Trial go no go,2020.2.10,Win32,60,,,,,,,,,,,,,,,,space,1,0,13,13,18,1,W,space,0.3271,,
,,,,,,,,,,,,,,,PUM21B,001,PUM21B,2023-11-28_09h03.53.125,Trial go no go,2020.2.10,Win32,60,,,,,,,,,,,,,,,,,0,0,14,14,6,1,I,space,,,
,,,,,,,,,,,,,,,PUM21B,001,PUM21B,2023-11-28_09h03.53.125,Trial go no go,2020.2.10,Win32,60,,,,,,,,,,,,,,,,,1,0,15,15,4,1,X,none,,,
,,,,,,,,,,,,,,,PUM21B,001,PUM21B,2023-11-28_09h03.53.125,Trial go no go,2020.2.10,Win32,60,,,,,,,,,,,,,,,,space,1,0,16,16,2,1,R,space,0.3509,,
,,,,,,,,,,,,,,,PUM21B,001,PUM21B,2023-11-28_09h03.53.125,Trial go no go,2020.2.10,Win32,60,,,,,,,,,,,,,,,,space,1,0,17,17,41,1,T,space,0.3333,,
,,,,,,,,,,,,,,,PUM21B,001,PUM21B,2023-11-28_09h03.53.125,Trial go no go,2020.2.10,Win32,60,,,,,,,,,,,,,,,,space,1,0,18,18,3,1,T,space,0.3274,,
,,,,,,,,,,,,,,,PUM21B,001,PUM21B,2023-11-28_09h03.53.125,Trial go no go,2020.2.10,Win32,60,,,,,,,,,,,,,,,,space,1,0,19,19,22,1,T,space,0.2812,,
,,,,,,,,,,,,,,,PUM21B,001,PUM21B,2023-11-28_09h03.53.125,Trial go no go,2020.2.10,Win32,60,,,,,,,,,,,,,,,,space,1,0,20,20,5,1,Y,space,0.6699,,
,,,,,,,,,,,,,,,PUM21B,001,PUM21B,2023-11-28_09h03.53.125,Trial go no go,2020.2.10,Win32,60,,,,,,,,,,,,,,,,space,1,0,21,21,23,1,Y,space,0.3828,,
,,,,,,,,,,,,,,,PUM21B,001,PUM21B,2023-11-28_09h03.53.125,Trial go no go,2020.2.10,Win32,60,,,,,,,,,,,,,,,,,1,0,22,22,19,1,X,none,,,
,,,,,,,,,,,,,,,PUM21B,001,PUM21B,2023-11-28_09h03.53.125,Trial go no go,2020.2.10,Win32,60,,,,,,,,,,,,,,,,space,1,0,23,23,45,1,A,space,0.2886,,
,,,,,,,,,,,,,,,PUM21B,001,PUM21B,2023-11-28_09h03.53.125,Trial go no go,2020.2.10,Win32,60,,,,,,,,,,,,,,,,space,0,0,24,24,49,1,X,none,0.2854,,
,,,,,,,,,,,,,,,PUM21B,001,PUM21B,2023-11-28_09h03.53.125,Trial go no go,2020.2.10,Win32,60,,,,,,,,,,,,,,,,space,1,0,25,25,37,1,W,space,0.4282,,
,,,,,,,,,,,,,,,PUM21B,001,PUM21B,2023-11-28_09h03.53.125,Trial go no go,2020.2.10,Win32,60,,,,,,,,,,,,,,,,space,1,0,26,26,43,1,I,space,0.425,,
,,,,,,,,,,,,,,,PUM21B,001,PUM21B,2023-11-28_09h03.53.125,Trial go no go,2020.2.10,Win32,60,,,,,,,,,,,,,,,,,1,0,27,27,34,1,X,none,,,
,,,,,,,,,,,,,,,PUM21B,001,PUM21B,2023-11-28_09h03.53.125,Trial go no go,2020.2.10,Win32,60,,,,,,,,,,,,,,,,space,1,0,28,28,42,1,Y,space,0.3406,,
,,,,,,,,,,,,,,,PUM21B,001,PUM21B,2023-11-28_09h03.53.125,Trial go no go,2020.2.10,Win32,60,,,,,,,,,,,,,,,,space,1,0,29,29,36,1,M,space,0.4657,,
,,,,,,,,,,,,,,,PUM21B,001,PUM21B,2023-11-28_09h03.53.125,Trial go no go,2020.2.10,Win32,60,,,,,,,,,,,,,,,,space,0,0,30,30,9,1,X,none,0.3016,,
,,,,,,,,,,,,,,,PUM21B,001,PUM21B,2023-11-28_09h03.53.125,Trial go no go,2020.2.10,Win32,60,,,,,,,,,,,,,,,,space,1,0,31,31,15,1,V,space,0.3965,,
,,,,,,,,,,,,,,,PUM21B,001,PUM21B,2023-11-28_09h03.53.125,Trial go no go,2020.2.10,Win32,60,,,,,,,,,,,,,,,,space,1,0,32,32,0,1,W,space,0.3707,,
,,,,,,,,,,,,,,,PUM21B,001,PUM21B,2023-11-28_09h03.53.125,Trial go no go,2020.2.10,Win32,60,,,,,,,,,,,,,,,,space,1,0,33,33,47,1,H,space,0.6339,,
,,,,,,,,,,,,,,,PUM21B,001,PUM21B,2023-11-28_09h03.53.125,Trial go no go,2020.2.10,Win32,60,,,,,,,,,,,,,,,,space,1,0,34,34,28,1,H,space,0.4549,,
,,,,,,,,,,,,,,,PUM21B,001,PUM21B,2023-11-28_09h03.53.125,Trial go no go,2020.2.10,Win32,60,,,,,,,,,,,,,,,,space,1,0,35,35,40,1,R,space,0.4241,,
,,,,,,,,,,,,,,,PUM21B,001,PUM21B,2023-11-28_09h03.53.125,Trial go no go,2020.2.10,Win32,60,,,,,,,,,,,,,,,,space,1,0,36,36,10,1,H,space,0.3282,,
,,,,,,,,,,,,,,,PUM21B,001,PUM21B,2023-11-28_09h03.53.125,Trial go no go,2020.2.10,Win32,60,,,,,,,,,,,,,,,,space,1,0,37,37,25,1,I,space,0.3477,,
,,,,,,,,,,,,,,,PUM21B,001,PUM21B,2023-11-28_09h03.53.125,Trial go no go,2020.2.10,Win32,60,,,,,,,,,,,,,,,,space,1,0,38,38,35,1,N,space,0.3687,,
,,,,,,,,,,,,,,,PUM21B,001,PUM21B,2023-11-28_09h03.53.125,Trial go no go,2020.2.10,Win32,60,,,,,,,,,,,,,,,,space,1,0,39,39,13,1,Z,space,0.3511,,
,,,,,,,,,,,,,,,PUM21B,001,PUM21B,2023-11-28_09h03.53.125,Trial go no go,2020.2.10,Win32,60,,,,,,,,,,,,,,,,space,1,0,40,40,33,1,V,space,0.3631,,
,,,,,,,,,,,,,,,PUM21B,001,PUM21B,2023-11-28_09h03.53.125,Trial go no go,2020.2.10,Win32,60,,,,,,,,,,,,,,,,space,1,0,41,41,46,1,F,space,0.3336,,
,,,,,,,,,,,,,,,PUM21B,001,PUM21B,2023-11-28_09h03.53.125,Trial go no go,2020.2.10,Win32,60,,,,,,,,,,,,,,,,space,1,0,42,42,27,1,F,space,0.2162,,
,,,,,,,,,,,,,,,PUM21B,001,PUM21B,2023-11-28_09h03.53.125,Trial go no go,2020.2.10,Win32,60,,,,,,,,,,,,,,,,space,1,0,43,43,11,1,K,space,0.2095,,
,,,,,,,,,,,,,,,PUM21B,001,PUM21B,2023-11-28_09h03.53.125,Trial go no go,2020.2.10,Win32,60,,,,,,,,,,,,,,,,space,1,0,44,44,30,1,K,space,0.0729,,
,,,,,,,,,,,,,,,PUM21B,001,PUM21B,2023-11-28_09h03.53.125,Trial go no go,2020.2.10,Win32,60,,,,,,,,,,,,,,,,space,0,0,45,45,24,1,X,none,0.0221,,
,,,,,,,,,,,,,,,PUM21B,001,PUM21B,2023-11-28_09h03.53.125,Trial go no go,2020.2.10,Win32,60,,,,,,,,,,,,,,,,space,1,0,46,46,8,1,F,space,0.3429,,
,,,,,,,,,,,,,,,PUM21B,001,PUM21B,2023-11-28_09h03.53.125,Trial go no go,2020.2.10,Win32,60,,,,,,,,,,,,,,,,space,1,0,47,47,16,1,N,space,0.3852,,
,,,,,,,,,,,,,,,PUM21B,001,PUM21B,2023-11-28_09h03.53.125,Trial go no go,2020.2.10,Win32,60,,,,,,,,,,,,,,,,space,1,0,48,48,32,1,Z,space,0.3168,,
,,,,,,,,,,,,,,,PUM21B,001,PUM21B,2023-11-28_09h03.53.125,Trial go no go,2020.2.10,Win32,60,,,,,,,,,,,,,,,,space,1,0,49,49,7,1,A,space,0.3411,,
,,,,,,,,,,,,,,,PUM21B,001,PUM21B,2023-11-28_09h03.53.125,Trial go no go,2020.2.10,Win32,60,,,,,,,,,,,,,,,,,,,,,,,,,,space,7.9243
