resp_Welcome.keys,resp_Welcome.rt,resp_Instr_Intro.keys,resp_Instr_Intro.rt,resp_Instr_Prac1.keys,resp_Instr_Prac1.rt,resp_trial_Prac1.keys,resp_trial_Prac1.corr,resp_trial_Prac1.rt,prac_trials.thisRepN,prac_trials.thisTrialN,prac_trials.thisN,prac_trials.thisIndex,prac_trials.ran,stimulus_prac1,corrAns_prac1,participant,session,indywidualny kod,date,expName,psychopyVersion,OS,frameRate,resp_Instr_Test1.keys,resp_Instr_Test1.rt,resp_trial_Test1.keys,resp_trial_Test1.corr,resp_trial_Test1.rt,test1trial.thisRepN,test1trial.thisTrialN,test1trial.thisN,test1trial.thisIndex,test1trial.ran,stimulus_test1,corrAns_test1,resp_Instr_Test2.keys,resp_Instr_Test2.rt,key_resp_Test2.keys,key_resp_Test2.corr,test2trial.thisRepN,test2trial.thisTrialN,test2trial.thisN,test2trial.thisIndex,test2trial.ran,stimulus_test2,corrAns_test2,key_resp_Test2.rt,resp_theEnd.keys,resp_theEnd.rt
space,11.9849,space,17.7386,space,7.3492,space,1,0.7009,0,0,0,0,1,X,space,WRO111,001,,2024-06-06_08h13.36.767,Trial go no go,2020.2.10,MacIntel,60,,,,,,,,,,,,,,,,,,,,,,,,,,
,,,,,,space,1,0.6364,0,1,1,7,1,X,space,WRO111,001,,2024-06-06_08h13.36.767,Trial go no go,2020.2.10,MacIntel,60,,,,,,,,,,,,,,,,,,,,,,,,,,
,,,,,,space,1,0.5992,0,2,2,12,1,X,space,WRO111,001,,2024-06-06_08h13.36.767,Trial go no go,2020.2.10,MacIntel,60,,,,,,,,,,,,,,,,,,,,,,,,,,
,,,,,,space,1,0.4777,0,3,3,13,1,X,space,WRO111,001,,2024-06-06_08h13.36.767,Trial go no go,2020.2.10,MacIntel,60,,,,,,,,,,,,,,,,,,,,,,,,,,
,,,,,,space,1,0.4722,0,4,4,10,1,X,space,WRO111,001,,2024-06-06_08h13.36.767,Trial go no go,2020.2.10,MacIntel,60,,,,,,,,,,,,,,,,,,,,,,,,,,
,,,,,,space,1,0.2895,0,5,5,3,1,X,space,WRO111,001,,2024-06-06_08h13.36.767,Trial go no go,2020.2.10,MacIntel,60,,,,,,,,,,,,,,,,,,,,,,,,,,
,,,,,,space,1,0.4315,0,6,6,8,1,X,space,WRO111,001,,2024-06-06_08h13.36.767,Trial go no go,2020.2.10,MacIntel,60,,,,,,,,,,,,,,,,,,,,,,,,,,
,,,,,,space,1,0.4108,0,7,7,11,1,X,space,WRO111,001,,2024-06-06_08h13.36.767,Trial go no go,2020.2.10,MacIntel,60,,,,,,,,,,,,,,,,,,,,,,,,,,
,,,,,,,1,,0,8,8,14,1,K,none,WRO111,001,,2024-06-06_08h13.36.767,Trial go no go,2020.2.10,MacIntel,60,,,,,,,,,,,,,,,,,,,,,,,,,,
,,,,,,space,1,0.3716,0,9,9,1,1,X,space,WRO111,001,,2024-06-06_08h13.36.767,Trial go no go,2020.2.10,MacIntel,60,,,,,,,,,,,,,,,,,,,,,,,,,,
,,,,,,space,1,0.4635,0,10,10,2,1,X,space,WRO111,001,,2024-06-06_08h13.36.767,Trial go no go,2020.2.10,MacIntel,60,,,,,,,,,,,,,,,,,,,,,,,,,,
,,,,,,,1,,0,11,11,4,1,W,none,WRO111,001,,2024-06-06_08h13.36.767,Trial go no go,2020.2.10,MacIntel,60,,,,,,,,,,,,,,,,,,,,,,,,,,
,,,,,,,1,,0,12,12,9,1,V,none,WRO111,001,,2024-06-06_08h13.36.767,Trial go no go,2020.2.10,MacIntel,60,,,,,,,,,,,,,,,,,,,,,,,,,,
,,,,,,space,1,0.5617,0,13,13,6,1,X,space,WRO111,001,,2024-06-06_08h13.36.767,Trial go no go,2020.2.10,MacIntel,60,,,,,,,,,,,,,,,,,,,,,,,,,,
,,,,,,space,1,0.4529,0,14,14,5,1,X,space,WRO111,001,,2024-06-06_08h13.36.767,Trial go no go,2020.2.10,MacIntel,60,,,,,,,,,,,,,,,,,,,,,,,,,,
,,,,,,,,,,,,,,,,WRO111,001,,2024-06-06_08h13.36.767,Trial go no go,2020.2.10,MacIntel,60,space,4.0294,space,1,0.4997,0,0,0,18,1,X,space,,,,,,,,,,,,,,
,,,,,,,,,,,,,,,,WRO111,001,,2024-06-06_08h13.36.767,Trial go no go,2020.2.10,MacIntel,60,,,space,1,0.5335,0,1,1,26,1,X,space,,,,,,,,,,,,,,
,,,,,,,,,,,,,,,,WRO111,001,,2024-06-06_08h13.36.767,Trial go no go,2020.2.10,MacIntel,60,,,space,1,0.3836,0,2,2,47,1,X,space,,,,,,,,,,,,,,
,,,,,,,,,,,,,,,,WRO111,001,,2024-06-06_08h13.36.767,Trial go no go,2020.2.10,MacIntel,60,,,space,1,0.2894,0,3,3,31,1,X,space,,,,,,,,,,,,,,
,,,,,,,,,,,,,,,,WRO111,001,,2024-06-06_08h13.36.767,Trial go no go,2020.2.10,MacIntel,60,,,space,1,0.2794,0,4,4,37,1,X,space,,,,,,,,,,,,,,
,,,,,,,,,,,,,,,,WRO111,001,,2024-06-06_08h13.36.767,Trial go no go,2020.2.10,MacIntel,60,,,space,1,0.299,0,5,5,22,1,X,space,,,,,,,,,,,,,,
,,,,,,,,,,,,,,,,WRO111,001,,2024-06-06_08h13.36.767,Trial go no go,2020.2.10,MacIntel,60,,,space,1,0.3335,0,6,6,3,1,X,space,,,,,,,,,,,,,,
,,,,,,,,,,,,,,,,WRO111,001,,2024-06-06_08h13.36.767,Trial go no go,2020.2.10,MacIntel,60,,,space,1,0.3289,0,7,7,35,1,X,space,,,,,,,,,,,,,,
,,,,,,,,,,,,,,,,WRO111,001,,2024-06-06_08h13.36.767,Trial go no go,2020.2.10,MacIntel,60,,,space,1,0.3026,0,8,8,6,1,X,space,,,,,,,,,,,,,,
,,,,,,,,,,,,,,,,WRO111,001,,2024-06-06_08h13.36.767,Trial go no go,2020.2.10,MacIntel,60,,,space,0,0.275,0,9,9,39,1,M,none,,,,,,,,,,,,,,
,,,,,,,,,,,,,,,,WRO111,001,,2024-06-06_08h13.36.767,Trial go no go,2020.2.10,MacIntel,60,,,space,1,0.8308,0,10,10,13,1,X,space,,,,,,,,,,,,,,
,,,,,,,,,,,,,,,,WRO111,001,,2024-06-06_08h13.36.767,Trial go no go,2020.2.10,MacIntel,60,,,,1,,0,11,11,44,1,F,none,,,,,,,,,,,,,,
,,,,,,,,,,,,,,,,WRO111,001,,2024-06-06_08h13.36.767,Trial go no go,2020.2.10,MacIntel,60,,,,1,,0,12,12,49,1,E,none,,,,,,,,,,,,,,
,,,,,,,,,,,,,,,,WRO111,001,,2024-06-06_08h13.36.767,Trial go no go,2020.2.10,MacIntel,60,,,space,1,0.4359,0,13,13,38,1,X,space,,,,,,,,,,,,,,
,,,,,,,,,,,,,,,,WRO111,001,,2024-06-06_08h13.36.767,Trial go no go,2020.2.10,MacIntel,60,,,space,1,0.4995,0,14,14,33,1,X,space,,,,,,,,,,,,,,
,,,,,,,,,,,,,,,,WRO111,001,,2024-06-06_08h13.36.767,Trial go no go,2020.2.10,MacIntel,60,,,space,1,0.4676,0,15,15,40,1,X,space,,,,,,,,,,,,,,
,,,,,,,,,,,,,,,,WRO111,001,,2024-06-06_08h13.36.767,Trial go no go,2020.2.10,MacIntel,60,,,,1,,0,16,16,29,1,T,none,,,,,,,,,,,,,,
,,,,,,,,,,,,,,,,WRO111,001,,2024-06-06_08h13.36.767,Trial go no go,2020.2.10,MacIntel,60,,,space,1,0.3907,0,17,17,32,1,X,space,,,,,,,,,,,,,,
,,,,,,,,,,,,,,,,WRO111,001,,2024-06-06_08h13.36.767,Trial go no go,2020.2.10,MacIntel,60,,,space,1,0.3366,0,18,18,10,1,X,space,,,,,,,,,,,,,,
,,,,,,,,,,,,,,,,WRO111,001,,2024-06-06_08h13.36.767,Trial go no go,2020.2.10,MacIntel,60,,,,1,,0,19,19,24,1,H,none,,,,,,,,,,,,,,
,,,,,,,,,,,,,,,,WRO111,001,,2024-06-06_08h13.36.767,Trial go no go,2020.2.10,MacIntel,60,,,space,1,0.4643,0,20,20,45,1,X,space,,,,,,,,,,,,,,
,,,,,,,,,,,,,,,,WRO111,001,,2024-06-06_08h13.36.767,Trial go no go,2020.2.10,MacIntel,60,,,space,1,0.5458,0,21,21,8,1,X,space,,,,,,,,,,,,,,
,,,,,,,,,,,,,,,,WRO111,001,,2024-06-06_08h13.36.767,Trial go no go,2020.2.10,MacIntel,60,,,space,1,0.5977,0,22,22,21,1,X,space,,,,,,,,,,,,,,
,,,,,,,,,,,,,,,,WRO111,001,,2024-06-06_08h13.36.767,Trial go no go,2020.2.10,MacIntel,60,,,,1,,0,23,23,4,1,V,none,,,,,,,,,,,,,,
,,,,,,,,,,,,,,,,WRO111,001,,2024-06-06_08h13.36.767,Trial go no go,2020.2.10,MacIntel,60,,,space,1,0.3011,0,24,24,7,1,X,space,,,,,,,,,,,,,,
,,,,,,,,,,,,,,,,WRO111,001,,2024-06-06_08h13.36.767,Trial go no go,2020.2.10,MacIntel,60,,,space,1,0.4334,0,25,25,20,1,X,space,,,,,,,,,,,,,,
,,,,,,,,,,,,,,,,WRO111,001,,2024-06-06_08h13.36.767,Trial go no go,2020.2.10,MacIntel,60,,,space,1,0.4323,0,26,26,1,1,X,space,,,,,,,,,,,,,,
,,,,,,,,,,,,,,,,WRO111,001,,2024-06-06_08h13.36.767,Trial go no go,2020.2.10,MacIntel,60,,,space,1,0.4628,0,27,27,41,1,X,space,,,,,,,,,,,,,,
,,,,,,,,,,,,,,,,WRO111,001,,2024-06-06_08h13.36.767,Trial go no go,2020.2.10,MacIntel,60,,,space,1,0.4437,0,28,28,27,1,X,space,,,,,,,,,,,,,,
,,,,,,,,,,,,,,,,WRO111,001,,2024-06-06_08h13.36.767,Trial go no go,2020.2.10,MacIntel,60,,,space,1,0.3654,0,29,29,23,1,X,space,,,,,,,,,,,,,,
,,,,,,,,,,,,,,,,WRO111,001,,2024-06-06_08h13.36.767,Trial go no go,2020.2.10,MacIntel,60,,,space,1,0.3423,0,30,30,17,1,X,space,,,,,,,,,,,,,,
,,,,,,,,,,,,,,,,WRO111,001,,2024-06-06_08h13.36.767,Trial go no go,2020.2.10,MacIntel,60,,,space,1,0.3433,0,31,31,43,1,X,space,,,,,,,,,,,,,,
,,,,,,,,,,,,,,,,WRO111,001,,2024-06-06_08h13.36.767,Trial go no go,2020.2.10,MacIntel,60,,,space,1,0.3679,0,32,32,0,1,X,space,,,,,,,,,,,,,,
,,,,,,,,,,,,,,,,WRO111,001,,2024-06-06_08h13.36.767,Trial go no go,2020.2.10,MacIntel,60,,,space,1,0.4462,0,33,33,42,1,X,space,,,,,,,,,,,,,,
,,,,,,,,,,,,,,,,WRO111,001,,2024-06-06_08h13.36.767,Trial go no go,2020.2.10,MacIntel,60,,,space,1,0.4666,0,34,34,30,1,X,space,,,,,,,,,,,,,,
,,,,,,,,,,,,,,,,WRO111,001,,2024-06-06_08h13.36.767,Trial go no go,2020.2.10,MacIntel,60,,,space,1,0.4052,0,35,35,5,1,X,space,,,,,,,,,,,,,,
,,,,,,,,,,,,,,,,WRO111,001,,2024-06-06_08h13.36.767,Trial go no go,2020.2.10,MacIntel,60,,,space,1,0.3649,0,36,36,15,1,X,space,,,,,,,,,,,,,,
,,,,,,,,,,,,,,,,WRO111,001,,2024-06-06_08h13.36.767,Trial go no go,2020.2.10,MacIntel,60,,,space,1,0.4622,0,37,37,11,1,X,space,,,,,,,,,,,,,,
,,,,,,,,,,,,,,,,WRO111,001,,2024-06-06_08h13.36.767,Trial go no go,2020.2.10,MacIntel,60,,,,1,,0,38,38,19,1,K,none,,,,,,,,,,,,,,
,,,,,,,,,,,,,,,,WRO111,001,,2024-06-06_08h13.36.767,Trial go no go,2020.2.10,MacIntel,60,,,space,1,0.3644,0,39,39,48,1,X,space,,,,,,,,,,,,,,
,,,,,,,,,,,,,,,,WRO111,001,,2024-06-06_08h13.36.767,Trial go no go,2020.2.10,MacIntel,60,,,space,1,0.4444,0,40,40,16,1,X,space,,,,,,,,,,,,,,
,,,,,,,,,,,,,,,,WRO111,001,,2024-06-06_08h13.36.767,Trial go no go,2020.2.10,MacIntel,60,,,,1,,0,41,41,14,1,Y,none,,,,,,,,,,,,,,
,,,,,,,,,,,,,,,,WRO111,001,,2024-06-06_08h13.36.767,Trial go no go,2020.2.10,MacIntel,60,,,space,1,0.4453,0,42,42,36,1,X,space,,,,,,,,,,,,,,
,,,,,,,,,,,,,,,,WRO111,001,,2024-06-06_08h13.36.767,Trial go no go,2020.2.10,MacIntel,60,,,space,1,0.4533,0,43,43,12,1,X,space,,,,,,,,,,,,,,
,,,,,,,,,,,,,,,,WRO111,001,,2024-06-06_08h13.36.767,Trial go no go,2020.2.10,MacIntel,60,,,,1,,0,44,44,34,1,N,none,,,,,,,,,,,,,,
,,,,,,,,,,,,,,,,WRO111,001,,2024-06-06_08h13.36.767,Trial go no go,2020.2.10,MacIntel,60,,,space,1,0.3585,0,45,45,46,1,X,space,,,,,,,,,,,,,,
,,,,,,,,,,,,,,,,WRO111,001,,2024-06-06_08h13.36.767,Trial go no go,2020.2.10,MacIntel,60,,,space,1,0.5218,0,46,46,28,1,X,space,,,,,,,,,,,,,,
,,,,,,,,,,,,,,,,WRO111,001,,2024-06-06_08h13.36.767,Trial go no go,2020.2.10,MacIntel,60,,,space,1,0.4463,0,47,47,2,1,X,space,,,,,,,,,,,,,,
,,,,,,,,,,,,,,,,WRO111,001,,2024-06-06_08h13.36.767,Trial go no go,2020.2.10,MacIntel,60,,,,1,,0,48,48,9,1,W,none,,,,,,,,,,,,,,
,,,,,,,,,,,,,,,,WRO111,001,,2024-06-06_08h13.36.767,Trial go no go,2020.2.10,MacIntel,60,,,space,1,0.382,0,49,49,25,1,X,space,,,,,,,,,,,,,,
,,,,,,,,,,,,,,,,WRO111,001,,2024-06-06_08h13.36.767,Trial go no go,2020.2.10,MacIntel,60,,,,,,,,,,,,,z,23.8476,,1,0,0,0,19,1,X,none,,,
,,,,,,,,,,,,,,,,WRO111,001,,2024-06-06_08h13.36.767,Trial go no go,2020.2.10,MacIntel,60,,,,,,,,,,,,,,,space,1,0,1,1,22,1,T,space,0.5288,,
,,,,,,,,,,,,,,,,WRO111,001,,2024-06-06_08h13.36.767,Trial go no go,2020.2.10,MacIntel,60,,,,,,,,,,,,,,,space,1,0,2,2,23,1,Y,space,0.5153,,
,,,,,,,,,,,,,,,,WRO111,001,,2024-06-06_08h13.36.767,Trial go no go,2020.2.10,MacIntel,60,,,,,,,,,,,,,,,space,1,0,3,3,42,1,Y,space,0.4568,,
,,,,,,,,,,,,,,,,WRO111,001,,2024-06-06_08h13.36.767,Trial go no go,2020.2.10,MacIntel,60,,,,,,,,,,,,,,,space,1,0,4,4,47,1,H,space,0.3996,,
,,,,,,,,,,,,,,,,WRO111,001,,2024-06-06_08h13.36.767,Trial go no go,2020.2.10,MacIntel,60,,,,,,,,,,,,,,,space,1,0,5,5,2,1,R,space,0.3757,,
,,,,,,,,,,,,,,,,WRO111,001,,2024-06-06_08h13.36.767,Trial go no go,2020.2.10,MacIntel,60,,,,,,,,,,,,,,,space,1,0,6,6,32,1,Z,space,0.35,,
,,,,,,,,,,,,,,,,WRO111,001,,2024-06-06_08h13.36.767,Trial go no go,2020.2.10,MacIntel,60,,,,,,,,,,,,,,,space,1,0,7,7,28,1,H,space,0.3226,,
,,,,,,,,,,,,,,,,WRO111,001,,2024-06-06_08h13.36.767,Trial go no go,2020.2.10,MacIntel,60,,,,,,,,,,,,,,,space,1,0,8,8,7,1,A,space,0.3931,,
,,,,,,,,,,,,,,,,WRO111,001,,2024-06-06_08h13.36.767,Trial go no go,2020.2.10,MacIntel,60,,,,,,,,,,,,,,,,1,0,9,9,39,1,X,none,,,
,,,,,,,,,,,,,,,,WRO111,001,,2024-06-06_08h13.36.767,Trial go no go,2020.2.10,MacIntel,60,,,,,,,,,,,,,,,space,1,0,10,10,15,1,V,space,0.276,,
,,,,,,,,,,,,,,,,WRO111,001,,2024-06-06_08h13.36.767,Trial go no go,2020.2.10,MacIntel,60,,,,,,,,,,,,,,,space,1,0,11,11,46,1,F,space,0.3608,,
,,,,,,,,,,,,,,,,WRO111,001,,2024-06-06_08h13.36.767,Trial go no go,2020.2.10,MacIntel,60,,,,,,,,,,,,,,,space,1,0,12,12,13,1,Z,space,0.3424,,
,,,,,,,,,,,,,,,,WRO111,001,,2024-06-06_08h13.36.767,Trial go no go,2020.2.10,MacIntel,60,,,,,,,,,,,,,,,space,1,0,13,13,48,1,K,space,0.3985,,
,,,,,,,,,,,,,,,,WRO111,001,,2024-06-06_08h13.36.767,Trial go no go,2020.2.10,MacIntel,60,,,,,,,,,,,,,,,space,1,0,14,14,31,1,L,space,0.3581,,
,,,,,,,,,,,,,,,,WRO111,001,,2024-06-06_08h13.36.767,Trial go no go,2020.2.10,MacIntel,60,,,,,,,,,,,,,,,space,1,0,15,15,38,1,E,space,0.3159,,
,,,,,,,,,,,,,,,,WRO111,001,,2024-06-06_08h13.36.767,Trial go no go,2020.2.10,MacIntel,60,,,,,,,,,,,,,,,space,1,0,16,16,1,1,E,space,0.3349,,
,,,,,,,,,,,,,,,,WRO111,001,,2024-06-06_08h13.36.767,Trial go no go,2020.2.10,MacIntel,60,,,,,,,,,,,,,,,space,0,0,17,17,44,1,X,none,0.2971,,
,,,,,,,,,,,,,,,,WRO111,001,,2024-06-06_08h13.36.767,Trial go no go,2020.2.10,MacIntel,60,,,,,,,,,,,,,,,space,1,0,18,18,40,1,R,space,0.4405,,
,,,,,,,,,,,,,,,,WRO111,001,,2024-06-06_08h13.36.767,Trial go no go,2020.2.10,MacIntel,60,,,,,,,,,,,,,,,space,1,0,19,19,0,1,W,space,0.4266,,
,,,,,,,,,,,,,,,,WRO111,001,,2024-06-06_08h13.36.767,Trial go no go,2020.2.10,MacIntel,60,,,,,,,,,,,,,,,space,1,0,20,20,8,1,F,space,0.3932,,
,,,,,,,,,,,,,,,,WRO111,001,,2024-06-06_08h13.36.767,Trial go no go,2020.2.10,MacIntel,60,,,,,,,,,,,,,,,space,1,0,21,21,26,1,A,space,0.406,,
,,,,,,,,,,,,,,,,WRO111,001,,2024-06-06_08h13.36.767,Trial go no go,2020.2.10,MacIntel,60,,,,,,,,,,,,,,,,1,0,22,22,9,1,X,none,,,
,,,,,,,,,,,,,,,,WRO111,001,,2024-06-06_08h13.36.767,Trial go no go,2020.2.10,MacIntel,60,,,,,,,,,,,,,,,space,1,0,23,23,3,1,T,space,0.3465,,
,,,,,,,,,,,,,,,,WRO111,001,,2024-06-06_08h13.36.767,Trial go no go,2020.2.10,MacIntel,60,,,,,,,,,,,,,,,space,0,0,24,24,49,1,X,none,0.3313,,
,,,,,,,,,,,,,,,,WRO111,001,,2024-06-06_08h13.36.767,Trial go no go,2020.2.10,MacIntel,60,,,,,,,,,,,,,,,space,1,0,25,25,17,1,M,space,0.4937,,
,,,,,,,,,,,,,,,,WRO111,001,,2024-06-06_08h13.36.767,Trial go no go,2020.2.10,MacIntel,60,,,,,,,,,,,,,,,space,1,0,26,26,20,1,E,space,0.401,,
,,,,,,,,,,,,,,,,WRO111,001,,2024-06-06_08h13.36.767,Trial go no go,2020.2.10,MacIntel,60,,,,,,,,,,,,,,,space,1,0,27,27,36,1,M,space,0.4483,,
,,,,,,,,,,,,,,,,WRO111,001,,2024-06-06_08h13.36.767,Trial go no go,2020.2.10,MacIntel,60,,,,,,,,,,,,,,,,1,0,28,28,4,1,X,none,,,
,,,,,,,,,,,,,,,,WRO111,001,,2024-06-06_08h13.36.767,Trial go no go,2020.2.10,MacIntel,60,,,,,,,,,,,,,,,space,1,0,29,29,30,1,K,space,0.3043,,
,,,,,,,,,,,,,,,,WRO111,001,,2024-06-06_08h13.36.767,Trial go no go,2020.2.10,MacIntel,60,,,,,,,,,,,,,,,space,1,0,30,30,33,1,V,space,0.3903,,
,,,,,,,,,,,,,,,,WRO111,001,,2024-06-06_08h13.36.767,Trial go no go,2020.2.10,MacIntel,60,,,,,,,,,,,,,,,,1,0,31,31,34,1,X,none,,,
,,,,,,,,,,,,,,,,WRO111,001,,2024-06-06_08h13.36.767,Trial go no go,2020.2.10,MacIntel,60,,,,,,,,,,,,,,,space,1,0,32,32,16,1,N,space,0.3434,,
,,,,,,,,,,,,,,,,WRO111,001,,2024-06-06_08h13.36.767,Trial go no go,2020.2.10,MacIntel,60,,,,,,,,,,,,,,,,1,0,33,33,24,1,X,none,,,
,,,,,,,,,,,,,,,,WRO111,001,,2024-06-06_08h13.36.767,Trial go no go,2020.2.10,MacIntel,60,,,,,,,,,,,,,,,space,1,0,34,34,11,1,K,space,0.27,,
,,,,,,,,,,,,,,,,WRO111,001,,2024-06-06_08h13.36.767,Trial go no go,2020.2.10,MacIntel,60,,,,,,,,,,,,,,,space,1,0,35,35,5,1,Y,space,0.5181,,
,,,,,,,,,,,,,,,,WRO111,001,,2024-06-06_08h13.36.767,Trial go no go,2020.2.10,MacIntel,60,,,,,,,,,,,,,,,space,1,0,36,36,27,1,F,space,0.4577,,
,,,,,,,,,,,,,,,,WRO111,001,,2024-06-06_08h13.36.767,Trial go no go,2020.2.10,MacIntel,60,,,,,,,,,,,,,,,space,1,0,37,37,37,1,W,space,0.6954,,
,,,,,,,,,,,,,,,,WRO111,001,,2024-06-06_08h13.36.767,Trial go no go,2020.2.10,MacIntel,60,,,,,,,,,,,,,,,space,1,0,38,38,43,1,I,space,0.4888,,
,,,,,,,,,,,,,,,,WRO111,001,,2024-06-06_08h13.36.767,Trial go no go,2020.2.10,MacIntel,60,,,,,,,,,,,,,,,space,1,0,39,39,45,1,A,space,0.4492,,
,,,,,,,,,,,,,,,,WRO111,001,,2024-06-06_08h13.36.767,Trial go no go,2020.2.10,MacIntel,60,,,,,,,,,,,,,,,space,1,0,40,40,6,1,I,space,0.4092,,
,,,,,,,,,,,,,,,,WRO111,001,,2024-06-06_08h13.36.767,Trial go no go,2020.2.10,MacIntel,60,,,,,,,,,,,,,,,space,1,0,41,41,21,1,R,space,0.4254,,
,,,,,,,,,,,,,,,,WRO111,001,,2024-06-06_08h13.36.767,Trial go no go,2020.2.10,MacIntel,60,,,,,,,,,,,,,,,space,0,0,42,42,14,1,X,none,0.4423,,
,,,,,,,,,,,,,,,,WRO111,001,,2024-06-06_08h13.36.767,Trial go no go,2020.2.10,MacIntel,60,,,,,,,,,,,,,,,space,1,0,43,43,35,1,N,space,0.4683,,
,,,,,,,,,,,,,,,,WRO111,001,,2024-06-06_08h13.36.767,Trial go no go,2020.2.10,MacIntel,60,,,,,,,,,,,,,,,space,1,0,44,44,12,1,L,space,0.4919,,
,,,,,,,,,,,,,,,,WRO111,001,,2024-06-06_08h13.36.767,Trial go no go,2020.2.10,MacIntel,60,,,,,,,,,,,,,,,,1,0,45,45,29,1,X,none,,,
,,,,,,,,,,,,,,,,WRO111,001,,2024-06-06_08h13.36.767,Trial go no go,2020.2.10,MacIntel,60,,,,,,,,,,,,,,,space,1,0,46,46,10,1,H,space,0.3047,,
,,,,,,,,,,,,,,,,WRO111,001,,2024-06-06_08h13.36.767,Trial go no go,2020.2.10,MacIntel,60,,,,,,,,,,,,,,,space,1,0,47,47,25,1,I,space,0.4065,,
,,,,,,,,,,,,,,,,WRO111,001,,2024-06-06_08h13.36.767,Trial go no go,2020.2.10,MacIntel,60,,,,,,,,,,,,,,,space,1,0,48,48,18,1,W,space,0.4141,,
,,,,,,,,,,,,,,,,WRO111,001,,2024-06-06_08h13.36.767,Trial go no go,2020.2.10,MacIntel,60,,,,,,,,,,,,,,,space,1,0,49,49,41,1,T,space,0.4164,,
,,,,,,,,,,,,,,,,WRO111,001,,2024-06-06_08h13.36.767,Trial go no go,2020.2.10,MacIntel,60,,,,,,,,,,,,,,,,,,,,,,,,,space,27.6159
