resp_Welcome.keys,resp_Welcome.rt,resp_Instr_Intro.keys,resp_Instr_Intro.rt,resp_Instr_Prac1.keys,resp_Instr_Prac1.rt,resp_trial_Prac1.keys,resp_trial_Prac1.corr,prac_trials.thisRepN,prac_trials.thisTrialN,prac_trials.thisN,prac_trials.thisIndex,prac_trials.ran,stimulus_prac1,corrAns_prac1,participant,session,indywidualny kod,date,expName,psychopyVersion,OS,frameRate,resp_trial_Prac1.rt,resp_Instr_Test1.keys,resp_Instr_Test1.rt,resp_trial_Test1.keys,resp_trial_Test1.corr,resp_trial_Test1.rt,test1trial.thisRepN,test1trial.thisTrialN,test1trial.thisN,test1trial.thisIndex,test1trial.ran,stimulus_test1,corrAns_test1,resp_Instr_Test2.keys,resp_Instr_Test2.rt,key_resp_Test2.keys,key_resp_Test2.corr,test2trial.thisRepN,test2trial.thisTrialN,test2trial.thisN,test2trial.thisIndex,test2trial.ran,stimulus_test2,corrAns_test2,key_resp_Test2.rt,resp_theEnd.keys,resp_theEnd.rt
space,25.2785,space,31.0226,space,12.9191,,0,0,0,0,12,1,X,space,WRO115,001,,2024-06-27_08h10.33.353,Trial go no go,2020.2.10,MacIntel,60,,,,,,,,,,,,,,,,,,,,,,,,,,,
,,,,,,space,1,0,1,1,11,1,X,space,WRO115,001,,2024-06-27_08h10.33.353,Trial go no go,2020.2.10,MacIntel,60,0.5666,,,,,,,,,,,,,,,,,,,,,,,,,,
,,,,,,space,1,0,2,2,8,1,X,space,WRO115,001,,2024-06-27_08h10.33.353,Trial go no go,2020.2.10,MacIntel,60,0.51,,,,,,,,,,,,,,,,,,,,,,,,,,
,,,,,,,1,0,3,3,4,1,W,none,WRO115,001,,2024-06-27_08h10.33.353,Trial go no go,2020.2.10,MacIntel,60,,,,,,,,,,,,,,,,,,,,,,,,,,,
,,,,,,space,1,0,4,4,10,1,X,space,WRO115,001,,2024-06-27_08h10.33.353,Trial go no go,2020.2.10,MacIntel,60,0.6935,,,,,,,,,,,,,,,,,,,,,,,,,,
,,,,,,space,1,0,5,5,1,1,X,space,WRO115,001,,2024-06-27_08h10.33.353,Trial go no go,2020.2.10,MacIntel,60,0.4881,,,,,,,,,,,,,,,,,,,,,,,,,,
,,,,,,space,1,0,6,6,5,1,X,space,WRO115,001,,2024-06-27_08h10.33.353,Trial go no go,2020.2.10,MacIntel,60,0.4563,,,,,,,,,,,,,,,,,,,,,,,,,,
,,,,,,space,1,0,7,7,3,1,X,space,WRO115,001,,2024-06-27_08h10.33.353,Trial go no go,2020.2.10,MacIntel,60,0.4697,,,,,,,,,,,,,,,,,,,,,,,,,,
,,,,,,space,1,0,8,8,0,1,X,space,WRO115,001,,2024-06-27_08h10.33.353,Trial go no go,2020.2.10,MacIntel,60,0.4686,,,,,,,,,,,,,,,,,,,,,,,,,,
,,,,,,,1,0,9,9,14,1,K,none,WRO115,001,,2024-06-27_08h10.33.353,Trial go no go,2020.2.10,MacIntel,60,,,,,,,,,,,,,,,,,,,,,,,,,,,
,,,,,,space,1,0,10,10,7,1,X,space,WRO115,001,,2024-06-27_08h10.33.353,Trial go no go,2020.2.10,MacIntel,60,0.4986,,,,,,,,,,,,,,,,,,,,,,,,,,
,,,,,,space,1,0,11,11,13,1,X,space,WRO115,001,,2024-06-27_08h10.33.353,Trial go no go,2020.2.10,MacIntel,60,0.4862,,,,,,,,,,,,,,,,,,,,,,,,,,
,,,,,,space,1,0,12,12,2,1,X,space,WRO115,001,,2024-06-27_08h10.33.353,Trial go no go,2020.2.10,MacIntel,60,0.4652,,,,,,,,,,,,,,,,,,,,,,,,,,
,,,,,,,1,0,13,13,9,1,V,none,WRO115,001,,2024-06-27_08h10.33.353,Trial go no go,2020.2.10,MacIntel,60,,,,,,,,,,,,,,,,,,,,,,,,,,,
,,,,,,space,1,0,14,14,6,1,X,space,WRO115,001,,2024-06-27_08h10.33.353,Trial go no go,2020.2.10,MacIntel,60,0.4474,,,,,,,,,,,,,,,,,,,,,,,,,,
,,,,,,,,,,,,,,,WRO115,001,,2024-06-27_08h10.33.353,Trial go no go,2020.2.10,MacIntel,60,,space,9.1717,space,1,0.5864,0,0,0,32,1,X,space,,,,,,,,,,,,,,
,,,,,,,,,,,,,,,WRO115,001,,2024-06-27_08h10.33.353,Trial go no go,2020.2.10,MacIntel,60,,,,space,1,0.6668,0,1,1,26,1,X,space,,,,,,,,,,,,,,
,,,,,,,,,,,,,,,WRO115,001,,2024-06-27_08h10.33.353,Trial go no go,2020.2.10,MacIntel,60,,,,space,1,0.3495,0,2,2,23,1,X,space,,,,,,,,,,,,,,
,,,,,,,,,,,,,,,WRO115,001,,2024-06-27_08h10.33.353,Trial go no go,2020.2.10,MacIntel,60,,,,,1,,0,3,3,34,1,N,none,,,,,,,,,,,,,,
,,,,,,,,,,,,,,,WRO115,001,,2024-06-27_08h10.33.353,Trial go no go,2020.2.10,MacIntel,60,,,,space,1,0.3075,0,4,4,16,1,X,space,,,,,,,,,,,,,,
,,,,,,,,,,,,,,,WRO115,001,,2024-06-27_08h10.33.353,Trial go no go,2020.2.10,MacIntel,60,,,,space,1,0.3672,0,5,5,21,1,X,space,,,,,,,,,,,,,,
,,,,,,,,,,,,,,,WRO115,001,,2024-06-27_08h10.33.353,Trial go no go,2020.2.10,MacIntel,60,,,,space,1,0.3686,0,6,6,38,1,X,space,,,,,,,,,,,,,,
,,,,,,,,,,,,,,,WRO115,001,,2024-06-27_08h10.33.353,Trial go no go,2020.2.10,MacIntel,60,,,,space,1,0.3851,0,7,7,35,1,X,space,,,,,,,,,,,,,,
,,,,,,,,,,,,,,,WRO115,001,,2024-06-27_08h10.33.353,Trial go no go,2020.2.10,MacIntel,60,,,,space,1,0.3421,0,8,8,45,1,X,space,,,,,,,,,,,,,,
,,,,,,,,,,,,,,,WRO115,001,,2024-06-27_08h10.33.353,Trial go no go,2020.2.10,MacIntel,60,,,,space,1,0.381,0,9,9,17,1,X,space,,,,,,,,,,,,,,
,,,,,,,,,,,,,,,WRO115,001,,2024-06-27_08h10.33.353,Trial go no go,2020.2.10,MacIntel,60,,,,space,1,0.3518,0,10,10,6,1,X,space,,,,,,,,,,,,,,
,,,,,,,,,,,,,,,WRO115,001,,2024-06-27_08h10.33.353,Trial go no go,2020.2.10,MacIntel,60,,,,space,1,0.3404,0,11,11,5,1,X,space,,,,,,,,,,,,,,
,,,,,,,,,,,,,,,WRO115,001,,2024-06-27_08h10.33.353,Trial go no go,2020.2.10,MacIntel,60,,,,space,1,0.3666,0,12,12,30,1,X,space,,,,,,,,,,,,,,
,,,,,,,,,,,,,,,WRO115,001,,2024-06-27_08h10.33.353,Trial go no go,2020.2.10,MacIntel,60,,,,space,1,0.3494,0,13,13,41,1,X,space,,,,,,,,,,,,,,
,,,,,,,,,,,,,,,WRO115,001,,2024-06-27_08h10.33.353,Trial go no go,2020.2.10,MacIntel,60,,,,space,1,0.3452,0,14,14,27,1,X,space,,,,,,,,,,,,,,
,,,,,,,,,,,,,,,WRO115,001,,2024-06-27_08h10.33.353,Trial go no go,2020.2.10,MacIntel,60,,,,space,0,0.3392,0,15,15,29,1,T,none,,,,,,,,,,,,,,
,,,,,,,,,,,,,,,WRO115,001,,2024-06-27_08h10.33.353,Trial go no go,2020.2.10,MacIntel,60,,,,space,1,0.4092,0,16,16,37,1,X,space,,,,,,,,,,,,,,
,,,,,,,,,,,,,,,WRO115,001,,2024-06-27_08h10.33.353,Trial go no go,2020.2.10,MacIntel,60,,,,space,1,0.4652,0,17,17,46,1,X,space,,,,,,,,,,,,,,
,,,,,,,,,,,,,,,WRO115,001,,2024-06-27_08h10.33.353,Trial go no go,2020.2.10,MacIntel,60,,,,space,1,0.4365,0,18,18,0,1,X,space,,,,,,,,,,,,,,
,,,,,,,,,,,,,,,WRO115,001,,2024-06-27_08h10.33.353,Trial go no go,2020.2.10,MacIntel,60,,,,space,1,0.3718,0,19,19,20,1,X,space,,,,,,,,,,,,,,
,,,,,,,,,,,,,,,WRO115,001,,2024-06-27_08h10.33.353,Trial go no go,2020.2.10,MacIntel,60,,,,,1,,0,20,20,9,1,W,none,,,,,,,,,,,,,,
,,,,,,,,,,,,,,,WRO115,001,,2024-06-27_08h10.33.353,Trial go no go,2020.2.10,MacIntel,60,,,,space,1,0.3278,0,21,21,33,1,X,space,,,,,,,,,,,,,,
,,,,,,,,,,,,,,,WRO115,001,,2024-06-27_08h10.33.353,Trial go no go,2020.2.10,MacIntel,60,,,,space,1,0.4003,0,22,22,40,1,X,space,,,,,,,,,,,,,,
,,,,,,,,,,,,,,,WRO115,001,,2024-06-27_08h10.33.353,Trial go no go,2020.2.10,MacIntel,60,,,,space,1,0.3678,0,23,23,31,1,X,space,,,,,,,,,,,,,,
,,,,,,,,,,,,,,,WRO115,001,,2024-06-27_08h10.33.353,Trial go no go,2020.2.10,MacIntel,60,,,,,1,,0,24,24,39,1,M,none,,,,,,,,,,,,,,
,,,,,,,,,,,,,,,WRO115,001,,2024-06-27_08h10.33.353,Trial go no go,2020.2.10,MacIntel,60,,,,space,1,0.3212,0,25,25,36,1,X,space,,,,,,,,,,,,,,
,,,,,,,,,,,,,,,WRO115,001,,2024-06-27_08h10.33.353,Trial go no go,2020.2.10,MacIntel,60,,,,space,1,0.3649,0,26,26,43,1,X,space,,,,,,,,,,,,,,
,,,,,,,,,,,,,,,WRO115,001,,2024-06-27_08h10.33.353,Trial go no go,2020.2.10,MacIntel,60,,,,,1,,0,27,27,24,1,H,none,,,,,,,,,,,,,,
,,,,,,,,,,,,,,,WRO115,001,,2024-06-27_08h10.33.353,Trial go no go,2020.2.10,MacIntel,60,,,,,1,,0,28,28,49,1,E,none,,,,,,,,,,,,,,
,,,,,,,,,,,,,,,WRO115,001,,2024-06-27_08h10.33.353,Trial go no go,2020.2.10,MacIntel,60,,,,space,1,0.3493,0,29,29,13,1,X,space,,,,,,,,,,,,,,
,,,,,,,,,,,,,,,WRO115,001,,2024-06-27_08h10.33.353,Trial go no go,2020.2.10,MacIntel,60,,,,space,1,0.3678,0,30,30,25,1,X,space,,,,,,,,,,,,,,
,,,,,,,,,,,,,,,WRO115,001,,2024-06-27_08h10.33.353,Trial go no go,2020.2.10,MacIntel,60,,,,space,1,0.4014,0,31,31,18,1,X,space,,,,,,,,,,,,,,
,,,,,,,,,,,,,,,WRO115,001,,2024-06-27_08h10.33.353,Trial go no go,2020.2.10,MacIntel,60,,,,space,1,0.4107,0,32,32,48,1,X,space,,,,,,,,,,,,,,
,,,,,,,,,,,,,,,WRO115,001,,2024-06-27_08h10.33.353,Trial go no go,2020.2.10,MacIntel,60,,,,space,1,0.3723,0,33,33,2,1,X,space,,,,,,,,,,,,,,
,,,,,,,,,,,,,,,WRO115,001,,2024-06-27_08h10.33.353,Trial go no go,2020.2.10,MacIntel,60,,,,space,1,0.4185,0,34,34,22,1,X,space,,,,,,,,,,,,,,
,,,,,,,,,,,,,,,WRO115,001,,2024-06-27_08h10.33.353,Trial go no go,2020.2.10,MacIntel,60,,,,space,1,0.399,0,35,35,8,1,X,space,,,,,,,,,,,,,,
,,,,,,,,,,,,,,,WRO115,001,,2024-06-27_08h10.33.353,Trial go no go,2020.2.10,MacIntel,60,,,,space,1,0.3697,0,36,36,47,1,X,space,,,,,,,,,,,,,,
,,,,,,,,,,,,,,,WRO115,001,,2024-06-27_08h10.33.353,Trial go no go,2020.2.10,MacIntel,60,,,,space,1,0.4673,0,37,37,15,1,X,space,,,,,,,,,,,,,,
,,,,,,,,,,,,,,,WRO115,001,,2024-06-27_08h10.33.353,Trial go no go,2020.2.10,MacIntel,60,,,,space,1,0.437,0,38,38,12,1,X,space,,,,,,,,,,,,,,
,,,,,,,,,,,,,,,WRO115,001,,2024-06-27_08h10.33.353,Trial go no go,2020.2.10,MacIntel,60,,,,space,1,0.3988,0,39,39,3,1,X,space,,,,,,,,,,,,,,
,,,,,,,,,,,,,,,WRO115,001,,2024-06-27_08h10.33.353,Trial go no go,2020.2.10,MacIntel,60,,,,space,1,0.3859,0,40,40,11,1,X,space,,,,,,,,,,,,,,
,,,,,,,,,,,,,,,WRO115,001,,2024-06-27_08h10.33.353,Trial go no go,2020.2.10,MacIntel,60,,,,,1,,0,41,41,4,1,V,none,,,,,,,,,,,,,,
,,,,,,,,,,,,,,,WRO115,001,,2024-06-27_08h10.33.353,Trial go no go,2020.2.10,MacIntel,60,,,,space,1,0.3511,0,42,42,10,1,X,space,,,,,,,,,,,,,,
,,,,,,,,,,,,,,,WRO115,001,,2024-06-27_08h10.33.353,Trial go no go,2020.2.10,MacIntel,60,,,,space,1,0.3479,0,43,43,7,1,X,space,,,,,,,,,,,,,,
,,,,,,,,,,,,,,,WRO115,001,,2024-06-27_08h10.33.353,Trial go no go,2020.2.10,MacIntel,60,,,,space,0,0.4054,0,44,44,19,1,K,none,,,,,,,,,,,,,,
,,,,,,,,,,,,,,,WRO115,001,,2024-06-27_08h10.33.353,Trial go no go,2020.2.10,MacIntel,60,,,,space,1,0.6493,0,45,45,28,1,X,space,,,,,,,,,,,,,,
,,,,,,,,,,,,,,,WRO115,001,,2024-06-27_08h10.33.353,Trial go no go,2020.2.10,MacIntel,60,,,,space,1,0.6804,0,46,46,1,1,X,space,,,,,,,,,,,,,,
,,,,,,,,,,,,,,,WRO115,001,,2024-06-27_08h10.33.353,Trial go no go,2020.2.10,MacIntel,60,,,,,1,,0,47,47,44,1,F,none,,,,,,,,,,,,,,
,,,,,,,,,,,,,,,WRO115,001,,2024-06-27_08h10.33.353,Trial go no go,2020.2.10,MacIntel,60,,,,,1,,0,48,48,14,1,Y,none,,,,,,,,,,,,,,
,,,,,,,,,,,,,,,WRO115,001,,2024-06-27_08h10.33.353,Trial go no go,2020.2.10,MacIntel,60,,,,,0,,0,49,49,42,1,X,space,,,,,,,,,,,,,,
,,,,,,,,,,,,,,,WRO115,001,,2024-06-27_08h10.33.353,Trial go no go,2020.2.10,MacIntel,60,,,,,,,,,,,,,,z,24.7294,,0,0,0,0,5,1,Y,space,,,
,,,,,,,,,,,,,,,WRO115,001,,2024-06-27_08h10.33.353,Trial go no go,2020.2.10,MacIntel,60,,,,,,,,,,,,,,,,,0,0,1,1,41,1,T,space,,,
,,,,,,,,,,,,,,,WRO115,001,,2024-06-27_08h10.33.353,Trial go no go,2020.2.10,MacIntel,60,,,,,,,,,,,,,,,,space,1,0,2,2,17,1,M,space,0.0533,,
,,,,,,,,,,,,,,,WRO115,001,,2024-06-27_08h10.33.353,Trial go no go,2020.2.10,MacIntel,60,,,,,,,,,,,,,,,,space,1,0,3,3,28,1,H,space,0.4,,
,,,,,,,,,,,,,,,WRO115,001,,2024-06-27_08h10.33.353,Trial go no go,2020.2.10,MacIntel,60,,,,,,,,,,,,,,,,space,1,0,4,4,37,1,W,space,0.4067,,
,,,,,,,,,,,,,,,WRO115,001,,2024-06-27_08h10.33.353,Trial go no go,2020.2.10,MacIntel,60,,,,,,,,,,,,,,,,space,1,0,5,5,40,1,R,space,0.4169,,
,,,,,,,,,,,,,,,WRO115,001,,2024-06-27_08h10.33.353,Trial go no go,2020.2.10,MacIntel,60,,,,,,,,,,,,,,,,,1,0,6,6,34,1,X,none,,,
,,,,,,,,,,,,,,,WRO115,001,,2024-06-27_08h10.33.353,Trial go no go,2020.2.10,MacIntel,60,,,,,,,,,,,,,,,,space,1,0,7,7,47,1,H,space,0.4155,,
,,,,,,,,,,,,,,,WRO115,001,,2024-06-27_08h10.33.353,Trial go no go,2020.2.10,MacIntel,60,,,,,,,,,,,,,,,,space,1,0,8,8,45,1,A,space,0.3529,,
,,,,,,,,,,,,,,,WRO115,001,,2024-06-27_08h10.33.353,Trial go no go,2020.2.10,MacIntel,60,,,,,,,,,,,,,,,,space,1,0,9,9,21,1,R,space,0.3622,,
,,,,,,,,,,,,,,,WRO115,001,,2024-06-27_08h10.33.353,Trial go no go,2020.2.10,MacIntel,60,,,,,,,,,,,,,,,,space,1,0,10,10,6,1,I,space,0.3664,,
,,,,,,,,,,,,,,,WRO115,001,,2024-06-27_08h10.33.353,Trial go no go,2020.2.10,MacIntel,60,,,,,,,,,,,,,,,,space,0,0,11,11,29,1,X,none,0.3638,,
,,,,,,,,,,,,,,,WRO115,001,,2024-06-27_08h10.33.353,Trial go no go,2020.2.10,MacIntel,60,,,,,,,,,,,,,,,,space,1,0,12,12,26,1,A,space,0.3837,,
,,,,,,,,,,,,,,,WRO115,001,,2024-06-27_08h10.33.353,Trial go no go,2020.2.10,MacIntel,60,,,,,,,,,,,,,,,,,1,0,13,13,24,1,X,none,,,
,,,,,,,,,,,,,,,WRO115,001,,2024-06-27_08h10.33.353,Trial go no go,2020.2.10,MacIntel,60,,,,,,,,,,,,,,,,space,1,0,14,14,7,1,A,space,0.4273,,
,,,,,,,,,,,,,,,WRO115,001,,2024-06-27_08h10.33.353,Trial go no go,2020.2.10,MacIntel,60,,,,,,,,,,,,,,,,space,0,0,15,15,4,1,X,none,0.3473,,
,,,,,,,,,,,,,,,WRO115,001,,2024-06-27_08h10.33.353,Trial go no go,2020.2.10,MacIntel,60,,,,,,,,,,,,,,,,space,1,0,16,16,36,1,M,space,0.418,,
,,,,,,,,,,,,,,,WRO115,001,,2024-06-27_08h10.33.353,Trial go no go,2020.2.10,MacIntel,60,,,,,,,,,,,,,,,,space,1,0,17,17,2,1,R,space,0.4107,,
,,,,,,,,,,,,,,,WRO115,001,,2024-06-27_08h10.33.353,Trial go no go,2020.2.10,MacIntel,60,,,,,,,,,,,,,,,,space,1,0,18,18,16,1,N,space,0.5102,,
,,,,,,,,,,,,,,,WRO115,001,,2024-06-27_08h10.33.353,Trial go no go,2020.2.10,MacIntel,60,,,,,,,,,,,,,,,,space,1,0,19,19,11,1,K,space,0.7026,,
,,,,,,,,,,,,,,,WRO115,001,,2024-06-27_08h10.33.353,Trial go no go,2020.2.10,MacIntel,60,,,,,,,,,,,,,,,,,1,0,20,20,44,1,X,none,,,
,,,,,,,,,,,,,,,WRO115,001,,2024-06-27_08h10.33.353,Trial go no go,2020.2.10,MacIntel,60,,,,,,,,,,,,,,,,space,1,0,21,21,12,1,L,space,0.3208,,
,,,,,,,,,,,,,,,WRO115,001,,2024-06-27_08h10.33.353,Trial go no go,2020.2.10,MacIntel,60,,,,,,,,,,,,,,,,space,1,0,22,22,30,1,K,space,0.5799,,
,,,,,,,,,,,,,,,WRO115,001,,2024-06-27_08h10.33.353,Trial go no go,2020.2.10,MacIntel,60,,,,,,,,,,,,,,,,,1,0,23,23,39,1,X,none,,,
,,,,,,,,,,,,,,,WRO115,001,,2024-06-27_08h10.33.353,Trial go no go,2020.2.10,MacIntel,60,,,,,,,,,,,,,,,,space,1,0,24,24,8,1,F,space,0.3508,,
,,,,,,,,,,,,,,,WRO115,001,,2024-06-27_08h10.33.353,Trial go no go,2020.2.10,MacIntel,60,,,,,,,,,,,,,,,,space,1,0,25,25,31,1,L,space,0.3996,,
,,,,,,,,,,,,,,,WRO115,001,,2024-06-27_08h10.33.353,Trial go no go,2020.2.10,MacIntel,60,,,,,,,,,,,,,,,,space,1,0,26,26,22,1,T,space,0.3748,,
,,,,,,,,,,,,,,,WRO115,001,,2024-06-27_08h10.33.353,Trial go no go,2020.2.10,MacIntel,60,,,,,,,,,,,,,,,,space,1,0,27,27,35,1,N,space,0.3666,,
,,,,,,,,,,,,,,,WRO115,001,,2024-06-27_08h10.33.353,Trial go no go,2020.2.10,MacIntel,60,,,,,,,,,,,,,,,,,1,0,28,28,14,1,X,none,,,
,,,,,,,,,,,,,,,WRO115,001,,2024-06-27_08h10.33.353,Trial go no go,2020.2.10,MacIntel,60,,,,,,,,,,,,,,,,space,1,0,29,29,3,1,T,space,0.3599,,
,,,,,,,,,,,,,,,WRO115,001,,2024-06-27_08h10.33.353,Trial go no go,2020.2.10,MacIntel,60,,,,,,,,,,,,,,,,space,1,0,30,30,32,1,Z,space,0.3729,,
,,,,,,,,,,,,,,,WRO115,001,,2024-06-27_08h10.33.353,Trial go no go,2020.2.10,MacIntel,60,,,,,,,,,,,,,,,,space,1,0,31,31,18,1,W,space,0.3635,,
,,,,,,,,,,,,,,,WRO115,001,,2024-06-27_08h10.33.353,Trial go no go,2020.2.10,MacIntel,60,,,,,,,,,,,,,,,,space,1,0,32,32,38,1,E,space,0.3696,,
,,,,,,,,,,,,,,,WRO115,001,,2024-06-27_08h10.33.353,Trial go no go,2020.2.10,MacIntel,60,,,,,,,,,,,,,,,,space,1,0,33,33,42,1,Y,space,0.3689,,
,,,,,,,,,,,,,,,WRO115,001,,2024-06-27_08h10.33.353,Trial go no go,2020.2.10,MacIntel,60,,,,,,,,,,,,,,,,space,1,0,34,34,1,1,E,space,0.4335,,
,,,,,,,,,,,,,,,WRO115,001,,2024-06-27_08h10.33.353,Trial go no go,2020.2.10,MacIntel,60,,,,,,,,,,,,,,,,,1,0,35,35,19,1,X,none,,,
,,,,,,,,,,,,,,,WRO115,001,,2024-06-27_08h10.33.353,Trial go no go,2020.2.10,MacIntel,60,,,,,,,,,,,,,,,,space,1,0,36,36,10,1,H,space,0.3349,,
,,,,,,,,,,,,,,,WRO115,001,,2024-06-27_08h10.33.353,Trial go no go,2020.2.10,MacIntel,60,,,,,,,,,,,,,,,,space,1,0,37,37,0,1,W,space,0.4941,,
,,,,,,,,,,,,,,,WRO115,001,,2024-06-27_08h10.33.353,Trial go no go,2020.2.10,MacIntel,60,,,,,,,,,,,,,,,,,1,0,38,38,9,1,X,none,,,
,,,,,,,,,,,,,,,WRO115,001,,2024-06-27_08h10.33.353,Trial go no go,2020.2.10,MacIntel,60,,,,,,,,,,,,,,,,space,1,0,39,39,43,1,I,space,0.4182,,
,,,,,,,,,,,,,,,WRO115,001,,2024-06-27_08h10.33.353,Trial go no go,2020.2.10,MacIntel,60,,,,,,,,,,,,,,,,space,1,0,40,40,25,1,I,space,0.3673,,
,,,,,,,,,,,,,,,WRO115,001,,2024-06-27_08h10.33.353,Trial go no go,2020.2.10,MacIntel,60,,,,,,,,,,,,,,,,,1,0,41,41,49,1,X,none,,,
,,,,,,,,,,,,,,,WRO115,001,,2024-06-27_08h10.33.353,Trial go no go,2020.2.10,MacIntel,60,,,,,,,,,,,,,,,,space,1,0,42,42,20,1,E,space,0.33,,
,,,,,,,,,,,,,,,WRO115,001,,2024-06-27_08h10.33.353,Trial go no go,2020.2.10,MacIntel,60,,,,,,,,,,,,,,,,space,1,0,43,43,23,1,Y,space,0.3731,,
,,,,,,,,,,,,,,,WRO115,001,,2024-06-27_08h10.33.353,Trial go no go,2020.2.10,MacIntel,60,,,,,,,,,,,,,,,,space,1,0,44,44,13,1,Z,space,0.5509,,
,,,,,,,,,,,,,,,WRO115,001,,2024-06-27_08h10.33.353,Trial go no go,2020.2.10,MacIntel,60,,,,,,,,,,,,,,,,space,1,0,45,45,46,1,F,space,0.4249,,
,,,,,,,,,,,,,,,WRO115,001,,2024-06-27_08h10.33.353,Trial go no go,2020.2.10,MacIntel,60,,,,,,,,,,,,,,,,space,1,0,46,46,27,1,F,space,0.3662,,
,,,,,,,,,,,,,,,WRO115,001,,2024-06-27_08h10.33.353,Trial go no go,2020.2.10,MacIntel,60,,,,,,,,,,,,,,,,space,1,0,47,47,33,1,V,space,0.3807,,
,,,,,,,,,,,,,,,WRO115,001,,2024-06-27_08h10.33.353,Trial go no go,2020.2.10,MacIntel,60,,,,,,,,,,,,,,,,space,1,0,48,48,48,1,K,space,0.5631,,
,,,,,,,,,,,,,,,WRO115,001,,2024-06-27_08h10.33.353,Trial go no go,2020.2.10,MacIntel,60,,,,,,,,,,,,,,,,space,1,0,49,49,15,1,V,space,0.3974,,
,,,,,,,,,,,,,,,WRO115,001,,2024-06-27_08h10.33.353,Trial go no go,2020.2.10,MacIntel,60,,,,,,,,,,,,,,,,,,,,,,,,,,space,35.6811
