resp_Welcome.keys,resp_Welcome.rt,resp_Instr_Intro.keys,resp_Instr_Intro.rt,resp_Instr_Prac1.keys,resp_Instr_Prac1.rt,resp_trial_Prac1.keys,resp_trial_Prac1.corr,resp_trial_Prac1.rt,prac_trials.thisRepN,prac_trials.thisTrialN,prac_trials.thisN,prac_trials.thisIndex,prac_trials.ran,stimulus_prac1,corrAns_prac1,participant,session,indywidualny kod,date,expName,psychopyVersion,OS,frameRate,fbclid,resp_Instr_Test1.keys,resp_Instr_Test1.rt,resp_trial_Test1.keys,resp_trial_Test1.corr,resp_trial_Test1.rt,test1trial.thisRepN,test1trial.thisTrialN,test1trial.thisN,test1trial.thisIndex,test1trial.ran,stimulus_test1,corrAns_test1,resp_Instr_Test2.keys,resp_Instr_Test2.rt,key_resp_Test2.keys,key_resp_Test2.corr,test2trial.thisRepN,test2trial.thisTrialN,test2trial.thisN,test2trial.thisIndex,test2trial.ran,stimulus_test2,corrAns_test2,key_resp_Test2.rt,resp_theEnd.keys,resp_theEnd.rt
space,15.6667,space,24.2324,space,20.3915,space,1,0.7041,0,0,0,10,1,X,space,wro69,001,,2023-10-16_11h00.55.828,Trial go no go,2020.2.10,MacIntel,60,IwAR1lpzRzgwvy8BhLb8FTyUULd88f_8vfeuA-BJvV7g6bVqrYEFPHxZ0sJE0,,,,,,,,,,,,,,,,,,,,,,,,,,
,,,,,,space,1,0.5503,0,1,1,8,1,X,space,wro69,001,,2023-10-16_11h00.55.828,Trial go no go,2020.2.10,MacIntel,60,IwAR1lpzRzgwvy8BhLb8FTyUULd88f_8vfeuA-BJvV7g6bVqrYEFPHxZ0sJE0,,,,,,,,,,,,,,,,,,,,,,,,,,
,,,,,,space,0,0.3694,0,2,2,9,1,V,none,wro69,001,,2023-10-16_11h00.55.828,Trial go no go,2020.2.10,MacIntel,60,IwAR1lpzRzgwvy8BhLb8FTyUULd88f_8vfeuA-BJvV7g6bVqrYEFPHxZ0sJE0,,,,,,,,,,,,,,,,,,,,,,,,,,
,,,,,,space,1,0.4963,0,3,3,12,1,X,space,wro69,001,,2023-10-16_11h00.55.828,Trial go no go,2020.2.10,MacIntel,60,IwAR1lpzRzgwvy8BhLb8FTyUULd88f_8vfeuA-BJvV7g6bVqrYEFPHxZ0sJE0,,,,,,,,,,,,,,,,,,,,,,,,,,
,,,,,,space,1,0.4664,0,4,4,13,1,X,space,wro69,001,,2023-10-16_11h00.55.828,Trial go no go,2020.2.10,MacIntel,60,IwAR1lpzRzgwvy8BhLb8FTyUULd88f_8vfeuA-BJvV7g6bVqrYEFPHxZ0sJE0,,,,,,,,,,,,,,,,,,,,,,,,,,
,,,,,,space,1,0.4968,0,5,5,6,1,X,space,wro69,001,,2023-10-16_11h00.55.828,Trial go no go,2020.2.10,MacIntel,60,IwAR1lpzRzgwvy8BhLb8FTyUULd88f_8vfeuA-BJvV7g6bVqrYEFPHxZ0sJE0,,,,,,,,,,,,,,,,,,,,,,,,,,
,,,,,,,1,,0,6,6,4,1,W,none,wro69,001,,2023-10-16_11h00.55.828,Trial go no go,2020.2.10,MacIntel,60,IwAR1lpzRzgwvy8BhLb8FTyUULd88f_8vfeuA-BJvV7g6bVqrYEFPHxZ0sJE0,,,,,,,,,,,,,,,,,,,,,,,,,,
,,,,,,space,1,0.431,0,7,7,3,1,X,space,wro69,001,,2023-10-16_11h00.55.828,Trial go no go,2020.2.10,MacIntel,60,IwAR1lpzRzgwvy8BhLb8FTyUULd88f_8vfeuA-BJvV7g6bVqrYEFPHxZ0sJE0,,,,,,,,,,,,,,,,,,,,,,,,,,
,,,,,,space,1,0.3995,0,8,8,1,1,X,space,wro69,001,,2023-10-16_11h00.55.828,Trial go no go,2020.2.10,MacIntel,60,IwAR1lpzRzgwvy8BhLb8FTyUULd88f_8vfeuA-BJvV7g6bVqrYEFPHxZ0sJE0,,,,,,,,,,,,,,,,,,,,,,,,,,
,,,,,,space,1,0.3973,0,9,9,7,1,X,space,wro69,001,,2023-10-16_11h00.55.828,Trial go no go,2020.2.10,MacIntel,60,IwAR1lpzRzgwvy8BhLb8FTyUULd88f_8vfeuA-BJvV7g6bVqrYEFPHxZ0sJE0,,,,,,,,,,,,,,,,,,,,,,,,,,
,,,,,,space,1,0.3877,0,10,10,0,1,X,space,wro69,001,,2023-10-16_11h00.55.828,Trial go no go,2020.2.10,MacIntel,60,IwAR1lpzRzgwvy8BhLb8FTyUULd88f_8vfeuA-BJvV7g6bVqrYEFPHxZ0sJE0,,,,,,,,,,,,,,,,,,,,,,,,,,
,,,,,,space,1,0.5339,0,11,11,5,1,X,space,wro69,001,,2023-10-16_11h00.55.828,Trial go no go,2020.2.10,MacIntel,60,IwAR1lpzRzgwvy8BhLb8FTyUULd88f_8vfeuA-BJvV7g6bVqrYEFPHxZ0sJE0,,,,,,,,,,,,,,,,,,,,,,,,,,
,,,,,,space,1,0.3877,0,12,12,11,1,X,space,wro69,001,,2023-10-16_11h00.55.828,Trial go no go,2020.2.10,MacIntel,60,IwAR1lpzRzgwvy8BhLb8FTyUULd88f_8vfeuA-BJvV7g6bVqrYEFPHxZ0sJE0,,,,,,,,,,,,,,,,,,,,,,,,,,
,,,,,,space,1,0.4537,0,13,13,2,1,X,space,wro69,001,,2023-10-16_11h00.55.828,Trial go no go,2020.2.10,MacIntel,60,IwAR1lpzRzgwvy8BhLb8FTyUULd88f_8vfeuA-BJvV7g6bVqrYEFPHxZ0sJE0,,,,,,,,,,,,,,,,,,,,,,,,,,
,,,,,,space,0,0.3802,0,14,14,14,1,K,none,wro69,001,,2023-10-16_11h00.55.828,Trial go no go,2020.2.10,MacIntel,60,IwAR1lpzRzgwvy8BhLb8FTyUULd88f_8vfeuA-BJvV7g6bVqrYEFPHxZ0sJE0,,,,,,,,,,,,,,,,,,,,,,,,,,
,,,,,,,,,,,,,,,,wro69,001,,2023-10-16_11h00.55.828,Trial go no go,2020.2.10,MacIntel,60,IwAR1lpzRzgwvy8BhLb8FTyUULd88f_8vfeuA-BJvV7g6bVqrYEFPHxZ0sJE0,space,4.3449,space,1,0.6173,0,0,0,16,1,X,space,,,,,,,,,,,,,,
,,,,,,,,,,,,,,,,wro69,001,,2023-10-16_11h00.55.828,Trial go no go,2020.2.10,MacIntel,60,IwAR1lpzRzgwvy8BhLb8FTyUULd88f_8vfeuA-BJvV7g6bVqrYEFPHxZ0sJE0,,,,1,,0,1,1,44,1,F,none,,,,,,,,,,,,,,
,,,,,,,,,,,,,,,,wro69,001,,2023-10-16_11h00.55.828,Trial go no go,2020.2.10,MacIntel,60,IwAR1lpzRzgwvy8BhLb8FTyUULd88f_8vfeuA-BJvV7g6bVqrYEFPHxZ0sJE0,,,space,1,0.3676,0,2,2,10,1,X,space,,,,,,,,,,,,,,
,,,,,,,,,,,,,,,,wro69,001,,2023-10-16_11h00.55.828,Trial go no go,2020.2.10,MacIntel,60,IwAR1lpzRzgwvy8BhLb8FTyUULd88f_8vfeuA-BJvV7g6bVqrYEFPHxZ0sJE0,,,space,1,0.3851,0,3,3,36,1,X,space,,,,,,,,,,,,,,
,,,,,,,,,,,,,,,,wro69,001,,2023-10-16_11h00.55.828,Trial go no go,2020.2.10,MacIntel,60,IwAR1lpzRzgwvy8BhLb8FTyUULd88f_8vfeuA-BJvV7g6bVqrYEFPHxZ0sJE0,,,space,0,0.2913,0,4,4,34,1,N,none,,,,,,,,,,,,,,
,,,,,,,,,,,,,,,,wro69,001,,2023-10-16_11h00.55.828,Trial go no go,2020.2.10,MacIntel,60,IwAR1lpzRzgwvy8BhLb8FTyUULd88f_8vfeuA-BJvV7g6bVqrYEFPHxZ0sJE0,,,,1,,0,5,5,39,1,M,none,,,,,,,,,,,,,,
,,,,,,,,,,,,,,,,wro69,001,,2023-10-16_11h00.55.828,Trial go no go,2020.2.10,MacIntel,60,IwAR1lpzRzgwvy8BhLb8FTyUULd88f_8vfeuA-BJvV7g6bVqrYEFPHxZ0sJE0,,,space,1,0.3823,0,6,6,12,1,X,space,,,,,,,,,,,,,,
,,,,,,,,,,,,,,,,wro69,001,,2023-10-16_11h00.55.828,Trial go no go,2020.2.10,MacIntel,60,IwAR1lpzRzgwvy8BhLb8FTyUULd88f_8vfeuA-BJvV7g6bVqrYEFPHxZ0sJE0,,,space,1,0.4895,0,7,7,0,1,X,space,,,,,,,,,,,,,,
,,,,,,,,,,,,,,,,wro69,001,,2023-10-16_11h00.55.828,Trial go no go,2020.2.10,MacIntel,60,IwAR1lpzRzgwvy8BhLb8FTyUULd88f_8vfeuA-BJvV7g6bVqrYEFPHxZ0sJE0,,,space,1,0.5007,0,8,8,22,1,X,space,,,,,,,,,,,,,,
,,,,,,,,,,,,,,,,wro69,001,,2023-10-16_11h00.55.828,Trial go no go,2020.2.10,MacIntel,60,IwAR1lpzRzgwvy8BhLb8FTyUULd88f_8vfeuA-BJvV7g6bVqrYEFPHxZ0sJE0,,,,1,,0,9,9,24,1,H,none,,,,,,,,,,,,,,
,,,,,,,,,,,,,,,,wro69,001,,2023-10-16_11h00.55.828,Trial go no go,2020.2.10,MacIntel,60,IwAR1lpzRzgwvy8BhLb8FTyUULd88f_8vfeuA-BJvV7g6bVqrYEFPHxZ0sJE0,,,space,1,0.348,0,10,10,11,1,X,space,,,,,,,,,,,,,,
,,,,,,,,,,,,,,,,wro69,001,,2023-10-16_11h00.55.828,Trial go no go,2020.2.10,MacIntel,60,IwAR1lpzRzgwvy8BhLb8FTyUULd88f_8vfeuA-BJvV7g6bVqrYEFPHxZ0sJE0,,,space,1,0.3842,0,11,11,32,1,X,space,,,,,,,,,,,,,,
,,,,,,,,,,,,,,,,wro69,001,,2023-10-16_11h00.55.828,Trial go no go,2020.2.10,MacIntel,60,IwAR1lpzRzgwvy8BhLb8FTyUULd88f_8vfeuA-BJvV7g6bVqrYEFPHxZ0sJE0,,,space,1,0.3325,0,12,12,25,1,X,space,,,,,,,,,,,,,,
,,,,,,,,,,,,,,,,wro69,001,,2023-10-16_11h00.55.828,Trial go no go,2020.2.10,MacIntel,60,IwAR1lpzRzgwvy8BhLb8FTyUULd88f_8vfeuA-BJvV7g6bVqrYEFPHxZ0sJE0,,,space,1,0.3506,0,13,13,13,1,X,space,,,,,,,,,,,,,,
,,,,,,,,,,,,,,,,wro69,001,,2023-10-16_11h00.55.828,Trial go no go,2020.2.10,MacIntel,60,IwAR1lpzRzgwvy8BhLb8FTyUULd88f_8vfeuA-BJvV7g6bVqrYEFPHxZ0sJE0,,,space,1,0.3661,0,14,14,7,1,X,space,,,,,,,,,,,,,,
,,,,,,,,,,,,,,,,wro69,001,,2023-10-16_11h00.55.828,Trial go no go,2020.2.10,MacIntel,60,IwAR1lpzRzgwvy8BhLb8FTyUULd88f_8vfeuA-BJvV7g6bVqrYEFPHxZ0sJE0,,,space,1,0.4037,0,15,15,46,1,X,space,,,,,,,,,,,,,,
,,,,,,,,,,,,,,,,wro69,001,,2023-10-16_11h00.55.828,Trial go no go,2020.2.10,MacIntel,60,IwAR1lpzRzgwvy8BhLb8FTyUULd88f_8vfeuA-BJvV7g6bVqrYEFPHxZ0sJE0,,,space,1,0.3171,0,16,16,6,1,X,space,,,,,,,,,,,,,,
,,,,,,,,,,,,,,,,wro69,001,,2023-10-16_11h00.55.828,Trial go no go,2020.2.10,MacIntel,60,IwAR1lpzRzgwvy8BhLb8FTyUULd88f_8vfeuA-BJvV7g6bVqrYEFPHxZ0sJE0,,,space,1,0.3002,0,17,17,35,1,X,space,,,,,,,,,,,,,,
,,,,,,,,,,,,,,,,wro69,001,,2023-10-16_11h00.55.828,Trial go no go,2020.2.10,MacIntel,60,IwAR1lpzRzgwvy8BhLb8FTyUULd88f_8vfeuA-BJvV7g6bVqrYEFPHxZ0sJE0,,,space,1,0.3845,0,18,18,31,1,X,space,,,,,,,,,,,,,,
,,,,,,,,,,,,,,,,wro69,001,,2023-10-16_11h00.55.828,Trial go no go,2020.2.10,MacIntel,60,IwAR1lpzRzgwvy8BhLb8FTyUULd88f_8vfeuA-BJvV7g6bVqrYEFPHxZ0sJE0,,,,1,,0,19,19,29,1,T,none,,,,,,,,,,,,,,
,,,,,,,,,,,,,,,,wro69,001,,2023-10-16_11h00.55.828,Trial go no go,2020.2.10,MacIntel,60,IwAR1lpzRzgwvy8BhLb8FTyUULd88f_8vfeuA-BJvV7g6bVqrYEFPHxZ0sJE0,,,space,1,0.283,0,20,20,47,1,X,space,,,,,,,,,,,,,,
,,,,,,,,,,,,,,,,wro69,001,,2023-10-16_11h00.55.828,Trial go no go,2020.2.10,MacIntel,60,IwAR1lpzRzgwvy8BhLb8FTyUULd88f_8vfeuA-BJvV7g6bVqrYEFPHxZ0sJE0,,,,1,,0,21,21,14,1,Y,none,,,,,,,,,,,,,,
,,,,,,,,,,,,,,,,wro69,001,,2023-10-16_11h00.55.828,Trial go no go,2020.2.10,MacIntel,60,IwAR1lpzRzgwvy8BhLb8FTyUULd88f_8vfeuA-BJvV7g6bVqrYEFPHxZ0sJE0,,,space,1,0.3499,0,22,22,26,1,X,space,,,,,,,,,,,,,,
,,,,,,,,,,,,,,,,wro69,001,,2023-10-16_11h00.55.828,Trial go no go,2020.2.10,MacIntel,60,IwAR1lpzRzgwvy8BhLb8FTyUULd88f_8vfeuA-BJvV7g6bVqrYEFPHxZ0sJE0,,,space,1,0.6001,0,23,23,41,1,X,space,,,,,,,,,,,,,,
,,,,,,,,,,,,,,,,wro69,001,,2023-10-16_11h00.55.828,Trial go no go,2020.2.10,MacIntel,60,IwAR1lpzRzgwvy8BhLb8FTyUULd88f_8vfeuA-BJvV7g6bVqrYEFPHxZ0sJE0,,,space,1,0.501,0,24,24,43,1,X,space,,,,,,,,,,,,,,
,,,,,,,,,,,,,,,,wro69,001,,2023-10-16_11h00.55.828,Trial go no go,2020.2.10,MacIntel,60,IwAR1lpzRzgwvy8BhLb8FTyUULd88f_8vfeuA-BJvV7g6bVqrYEFPHxZ0sJE0,,,space,1,0.3177,0,25,25,42,1,X,space,,,,,,,,,,,,,,
,,,,,,,,,,,,,,,,wro69,001,,2023-10-16_11h00.55.828,Trial go no go,2020.2.10,MacIntel,60,IwAR1lpzRzgwvy8BhLb8FTyUULd88f_8vfeuA-BJvV7g6bVqrYEFPHxZ0sJE0,,,space,0,0.3137,0,26,26,49,1,E,none,,,,,,,,,,,,,,
,,,,,,,,,,,,,,,,wro69,001,,2023-10-16_11h00.55.828,Trial go no go,2020.2.10,MacIntel,60,IwAR1lpzRzgwvy8BhLb8FTyUULd88f_8vfeuA-BJvV7g6bVqrYEFPHxZ0sJE0,,,space,1,0.3504,0,27,27,33,1,X,space,,,,,,,,,,,,,,
,,,,,,,,,,,,,,,,wro69,001,,2023-10-16_11h00.55.828,Trial go no go,2020.2.10,MacIntel,60,IwAR1lpzRzgwvy8BhLb8FTyUULd88f_8vfeuA-BJvV7g6bVqrYEFPHxZ0sJE0,,,space,1,0.4506,0,28,28,27,1,X,space,,,,,,,,,,,,,,
,,,,,,,,,,,,,,,,wro69,001,,2023-10-16_11h00.55.828,Trial go no go,2020.2.10,MacIntel,60,IwAR1lpzRzgwvy8BhLb8FTyUULd88f_8vfeuA-BJvV7g6bVqrYEFPHxZ0sJE0,,,,1,,0,29,29,4,1,V,none,,,,,,,,,,,,,,
,,,,,,,,,,,,,,,,wro69,001,,2023-10-16_11h00.55.828,Trial go no go,2020.2.10,MacIntel,60,IwAR1lpzRzgwvy8BhLb8FTyUULd88f_8vfeuA-BJvV7g6bVqrYEFPHxZ0sJE0,,,space,1,0.5157,0,30,30,17,1,X,space,,,,,,,,,,,,,,
,,,,,,,,,,,,,,,,wro69,001,,2023-10-16_11h00.55.828,Trial go no go,2020.2.10,MacIntel,60,IwAR1lpzRzgwvy8BhLb8FTyUULd88f_8vfeuA-BJvV7g6bVqrYEFPHxZ0sJE0,,,space,1,0.5691,0,31,31,48,1,X,space,,,,,,,,,,,,,,
,,,,,,,,,,,,,,,,wro69,001,,2023-10-16_11h00.55.828,Trial go no go,2020.2.10,MacIntel,60,IwAR1lpzRzgwvy8BhLb8FTyUULd88f_8vfeuA-BJvV7g6bVqrYEFPHxZ0sJE0,,,space,1,0.3497,0,32,32,40,1,X,space,,,,,,,,,,,,,,
,,,,,,,,,,,,,,,,wro69,001,,2023-10-16_11h00.55.828,Trial go no go,2020.2.10,MacIntel,60,IwAR1lpzRzgwvy8BhLb8FTyUULd88f_8vfeuA-BJvV7g6bVqrYEFPHxZ0sJE0,,,space,1,0.3354,0,33,33,21,1,X,space,,,,,,,,,,,,,,
,,,,,,,,,,,,,,,,wro69,001,,2023-10-16_11h00.55.828,Trial go no go,2020.2.10,MacIntel,60,IwAR1lpzRzgwvy8BhLb8FTyUULd88f_8vfeuA-BJvV7g6bVqrYEFPHxZ0sJE0,,,space,1,0.3508,0,34,34,18,1,X,space,,,,,,,,,,,,,,
,,,,,,,,,,,,,,,,wro69,001,,2023-10-16_11h00.55.828,Trial go no go,2020.2.10,MacIntel,60,IwAR1lpzRzgwvy8BhLb8FTyUULd88f_8vfeuA-BJvV7g6bVqrYEFPHxZ0sJE0,,,space,0,0.2995,0,35,35,9,1,W,none,,,,,,,,,,,,,,
,,,,,,,,,,,,,,,,wro69,001,,2023-10-16_11h00.55.828,Trial go no go,2020.2.10,MacIntel,60,IwAR1lpzRzgwvy8BhLb8FTyUULd88f_8vfeuA-BJvV7g6bVqrYEFPHxZ0sJE0,,,space,1,0.3165,0,36,36,3,1,X,space,,,,,,,,,,,,,,
,,,,,,,,,,,,,,,,wro69,001,,2023-10-16_11h00.55.828,Trial go no go,2020.2.10,MacIntel,60,IwAR1lpzRzgwvy8BhLb8FTyUULd88f_8vfeuA-BJvV7g6bVqrYEFPHxZ0sJE0,,,space,1,0.3668,0,37,37,1,1,X,space,,,,,,,,,,,,,,
,,,,,,,,,,,,,,,,wro69,001,,2023-10-16_11h00.55.828,Trial go no go,2020.2.10,MacIntel,60,IwAR1lpzRzgwvy8BhLb8FTyUULd88f_8vfeuA-BJvV7g6bVqrYEFPHxZ0sJE0,,,space,1,0.5338,0,38,38,5,1,X,space,,,,,,,,,,,,,,
,,,,,,,,,,,,,,,,wro69,001,,2023-10-16_11h00.55.828,Trial go no go,2020.2.10,MacIntel,60,IwAR1lpzRzgwvy8BhLb8FTyUULd88f_8vfeuA-BJvV7g6bVqrYEFPHxZ0sJE0,,,space,1,0.4342,0,39,39,37,1,X,space,,,,,,,,,,,,,,
,,,,,,,,,,,,,,,,wro69,001,,2023-10-16_11h00.55.828,Trial go no go,2020.2.10,MacIntel,60,IwAR1lpzRzgwvy8BhLb8FTyUULd88f_8vfeuA-BJvV7g6bVqrYEFPHxZ0sJE0,,,space,1,0.3513,0,40,40,15,1,X,space,,,,,,,,,,,,,,
,,,,,,,,,,,,,,,,wro69,001,,2023-10-16_11h00.55.828,Trial go no go,2020.2.10,MacIntel,60,IwAR1lpzRzgwvy8BhLb8FTyUULd88f_8vfeuA-BJvV7g6bVqrYEFPHxZ0sJE0,,,space,1,0.3681,0,41,41,30,1,X,space,,,,,,,,,,,,,,
,,,,,,,,,,,,,,,,wro69,001,,2023-10-16_11h00.55.828,Trial go no go,2020.2.10,MacIntel,60,IwAR1lpzRzgwvy8BhLb8FTyUULd88f_8vfeuA-BJvV7g6bVqrYEFPHxZ0sJE0,,,,1,,0,42,42,19,1,K,none,,,,,,,,,,,,,,
,,,,,,,,,,,,,,,,wro69,001,,2023-10-16_11h00.55.828,Trial go no go,2020.2.10,MacIntel,60,IwAR1lpzRzgwvy8BhLb8FTyUULd88f_8vfeuA-BJvV7g6bVqrYEFPHxZ0sJE0,,,space,1,0.3158,0,43,43,45,1,X,space,,,,,,,,,,,,,,
,,,,,,,,,,,,,,,,wro69,001,,2023-10-16_11h00.55.828,Trial go no go,2020.2.10,MacIntel,60,IwAR1lpzRzgwvy8BhLb8FTyUULd88f_8vfeuA-BJvV7g6bVqrYEFPHxZ0sJE0,,,space,1,0.3001,0,44,44,23,1,X,space,,,,,,,,,,,,,,
,,,,,,,,,,,,,,,,wro69,001,,2023-10-16_11h00.55.828,Trial go no go,2020.2.10,MacIntel,60,IwAR1lpzRzgwvy8BhLb8FTyUULd88f_8vfeuA-BJvV7g6bVqrYEFPHxZ0sJE0,,,space,1,0.3667,0,45,45,8,1,X,space,,,,,,,,,,,,,,
,,,,,,,,,,,,,,,,wro69,001,,2023-10-16_11h00.55.828,Trial go no go,2020.2.10,MacIntel,60,IwAR1lpzRzgwvy8BhLb8FTyUULd88f_8vfeuA-BJvV7g6bVqrYEFPHxZ0sJE0,,,space,1,0.3347,0,46,46,2,1,X,space,,,,,,,,,,,,,,
,,,,,,,,,,,,,,,,wro69,001,,2023-10-16_11h00.55.828,Trial go no go,2020.2.10,MacIntel,60,IwAR1lpzRzgwvy8BhLb8FTyUULd88f_8vfeuA-BJvV7g6bVqrYEFPHxZ0sJE0,,,space,1,0.3341,0,47,47,20,1,X,space,,,,,,,,,,,,,,
,,,,,,,,,,,,,,,,wro69,001,,2023-10-16_11h00.55.828,Trial go no go,2020.2.10,MacIntel,60,IwAR1lpzRzgwvy8BhLb8FTyUULd88f_8vfeuA-BJvV7g6bVqrYEFPHxZ0sJE0,,,space,1,0.4685,0,48,48,28,1,X,space,,,,,,,,,,,,,,
,,,,,,,,,,,,,,,,wro69,001,,2023-10-16_11h00.55.828,Trial go no go,2020.2.10,MacIntel,60,IwAR1lpzRzgwvy8BhLb8FTyUULd88f_8vfeuA-BJvV7g6bVqrYEFPHxZ0sJE0,,,space,1,0.468,0,49,49,38,1,X,space,,,,,,,,,,,,,,
,,,,,,,,,,,,,,,,wro69,001,,2023-10-16_11h00.55.828,Trial go no go,2020.2.10,MacIntel,60,IwAR1lpzRzgwvy8BhLb8FTyUULd88f_8vfeuA-BJvV7g6bVqrYEFPHxZ0sJE0,,,,,,,,,,,,,z,4.9841,,0,0,0,0,20,1,E,space,,,
,,,,,,,,,,,,,,,,wro69,001,,2023-10-16_11h00.55.828,Trial go no go,2020.2.10,MacIntel,60,IwAR1lpzRzgwvy8BhLb8FTyUULd88f_8vfeuA-BJvV7g6bVqrYEFPHxZ0sJE0,,,,,,,,,,,,,,,space,1,0,1,1,21,1,R,space,0.3479,,
,,,,,,,,,,,,,,,,wro69,001,,2023-10-16_11h00.55.828,Trial go no go,2020.2.10,MacIntel,60,IwAR1lpzRzgwvy8BhLb8FTyUULd88f_8vfeuA-BJvV7g6bVqrYEFPHxZ0sJE0,,,,,,,,,,,,,,,space,0,0,2,2,49,1,X,none,0.3502,,
,,,,,,,,,,,,,,,,wro69,001,,2023-10-16_11h00.55.828,Trial go no go,2020.2.10,MacIntel,60,IwAR1lpzRzgwvy8BhLb8FTyUULd88f_8vfeuA-BJvV7g6bVqrYEFPHxZ0sJE0,,,,,,,,,,,,,,,,0,0,3,3,8,1,F,space,,,
,,,,,,,,,,,,,,,,wro69,001,,2023-10-16_11h00.55.828,Trial go no go,2020.2.10,MacIntel,60,IwAR1lpzRzgwvy8BhLb8FTyUULd88f_8vfeuA-BJvV7g6bVqrYEFPHxZ0sJE0,,,,,,,,,,,,,,,space,1,0,4,4,26,1,A,space,0.28,,
,,,,,,,,,,,,,,,,wro69,001,,2023-10-16_11h00.55.828,Trial go no go,2020.2.10,MacIntel,60,IwAR1lpzRzgwvy8BhLb8FTyUULd88f_8vfeuA-BJvV7g6bVqrYEFPHxZ0sJE0,,,,,,,,,,,,,,,space,0,0,5,5,9,1,X,none,0.611,,
,,,,,,,,,,,,,,,,wro69,001,,2023-10-16_11h00.55.828,Trial go no go,2020.2.10,MacIntel,60,IwAR1lpzRzgwvy8BhLb8FTyUULd88f_8vfeuA-BJvV7g6bVqrYEFPHxZ0sJE0,,,,,,,,,,,,,,,,0,0,6,6,17,1,M,space,,,
,,,,,,,,,,,,,,,,wro69,001,,2023-10-16_11h00.55.828,Trial go no go,2020.2.10,MacIntel,60,IwAR1lpzRzgwvy8BhLb8FTyUULd88f_8vfeuA-BJvV7g6bVqrYEFPHxZ0sJE0,,,,,,,,,,,,,,,space,1,0,7,7,30,1,K,space,0.3159,,
,,,,,,,,,,,,,,,,wro69,001,,2023-10-16_11h00.55.828,Trial go no go,2020.2.10,MacIntel,60,IwAR1lpzRzgwvy8BhLb8FTyUULd88f_8vfeuA-BJvV7g6bVqrYEFPHxZ0sJE0,,,,,,,,,,,,,,,,0,0,8,8,5,1,Y,space,,,
,,,,,,,,,,,,,,,,wro69,001,,2023-10-16_11h00.55.828,Trial go no go,2020.2.10,MacIntel,60,IwAR1lpzRzgwvy8BhLb8FTyUULd88f_8vfeuA-BJvV7g6bVqrYEFPHxZ0sJE0,,,,,,,,,,,,,,,,0,0,9,9,13,1,Z,space,,,
,,,,,,,,,,,,,,,,wro69,001,,2023-10-16_11h00.55.828,Trial go no go,2020.2.10,MacIntel,60,IwAR1lpzRzgwvy8BhLb8FTyUULd88f_8vfeuA-BJvV7g6bVqrYEFPHxZ0sJE0,,,,,,,,,,,,,,,,0,0,10,10,7,1,A,space,,,
,,,,,,,,,,,,,,,,wro69,001,,2023-10-16_11h00.55.828,Trial go no go,2020.2.10,MacIntel,60,IwAR1lpzRzgwvy8BhLb8FTyUULd88f_8vfeuA-BJvV7g6bVqrYEFPHxZ0sJE0,,,,,,,,,,,,,,,,0,0,11,11,15,1,V,space,,,
,,,,,,,,,,,,,,,,wro69,001,,2023-10-16_11h00.55.828,Trial go no go,2020.2.10,MacIntel,60,IwAR1lpzRzgwvy8BhLb8FTyUULd88f_8vfeuA-BJvV7g6bVqrYEFPHxZ0sJE0,,,,,,,,,,,,,,,,0,0,12,12,12,1,L,space,,,
,,,,,,,,,,,,,,,,wro69,001,,2023-10-16_11h00.55.828,Trial go no go,2020.2.10,MacIntel,60,IwAR1lpzRzgwvy8BhLb8FTyUULd88f_8vfeuA-BJvV7g6bVqrYEFPHxZ0sJE0,,,,,,,,,,,,,,,,0,0,13,13,48,1,K,space,,,
,,,,,,,,,,,,,,,,wro69,001,,2023-10-16_11h00.55.828,Trial go no go,2020.2.10,MacIntel,60,IwAR1lpzRzgwvy8BhLb8FTyUULd88f_8vfeuA-BJvV7g6bVqrYEFPHxZ0sJE0,,,,,,,,,,,,,,,,0,0,14,14,47,1,H,space,,,
,,,,,,,,,,,,,,,,wro69,001,,2023-10-16_11h00.55.828,Trial go no go,2020.2.10,MacIntel,60,IwAR1lpzRzgwvy8BhLb8FTyUULd88f_8vfeuA-BJvV7g6bVqrYEFPHxZ0sJE0,,,,,,,,,,,,,,,,0,0,15,15,1,1,E,space,,,
,,,,,,,,,,,,,,,,wro69,001,,2023-10-16_11h00.55.828,Trial go no go,2020.2.10,MacIntel,60,IwAR1lpzRzgwvy8BhLb8FTyUULd88f_8vfeuA-BJvV7g6bVqrYEFPHxZ0sJE0,,,,,,,,,,,,,,,,0,0,16,16,2,1,R,space,,,
,,,,,,,,,,,,,,,,wro69,001,,2023-10-16_11h00.55.828,Trial go no go,2020.2.10,MacIntel,60,IwAR1lpzRzgwvy8BhLb8FTyUULd88f_8vfeuA-BJvV7g6bVqrYEFPHxZ0sJE0,,,,,,,,,,,,,,,,0,0,17,17,27,1,F,space,,,
,,,,,,,,,,,,,,,,wro69,001,,2023-10-16_11h00.55.828,Trial go no go,2020.2.10,MacIntel,60,IwAR1lpzRzgwvy8BhLb8FTyUULd88f_8vfeuA-BJvV7g6bVqrYEFPHxZ0sJE0,,,,,,,,,,,,,,,,0,0,18,18,25,1,I,space,,,
,,,,,,,,,,,,,,,,wro69,001,,2023-10-16_11h00.55.828,Trial go no go,2020.2.10,MacIntel,60,IwAR1lpzRzgwvy8BhLb8FTyUULd88f_8vfeuA-BJvV7g6bVqrYEFPHxZ0sJE0,,,,,,,,,,,,,,,,0,0,19,19,37,1,W,space,,,
,,,,,,,,,,,,,,,,wro69,001,,2023-10-16_11h00.55.828,Trial go no go,2020.2.10,MacIntel,60,IwAR1lpzRzgwvy8BhLb8FTyUULd88f_8vfeuA-BJvV7g6bVqrYEFPHxZ0sJE0,,,,,,,,,,,,,,,space,0,0,20,20,24,1,X,none,0.5006,,
,,,,,,,,,,,,,,,,wro69,001,,2023-10-16_11h00.55.828,Trial go no go,2020.2.10,MacIntel,60,IwAR1lpzRzgwvy8BhLb8FTyUULd88f_8vfeuA-BJvV7g6bVqrYEFPHxZ0sJE0,,,,,,,,,,,,,,,,0,0,21,21,40,1,R,space,,,
,,,,,,,,,,,,,,,,wro69,001,,2023-10-16_11h00.55.828,Trial go no go,2020.2.10,MacIntel,60,IwAR1lpzRzgwvy8BhLb8FTyUULd88f_8vfeuA-BJvV7g6bVqrYEFPHxZ0sJE0,,,,,,,,,,,,,,,,0,0,22,22,0,1,W,space,,,
,,,,,,,,,,,,,,,,wro69,001,,2023-10-16_11h00.55.828,Trial go no go,2020.2.10,MacIntel,60,IwAR1lpzRzgwvy8BhLb8FTyUULd88f_8vfeuA-BJvV7g6bVqrYEFPHxZ0sJE0,,,,,,,,,,,,,,,,0,0,23,23,32,1,Z,space,,,
,,,,,,,,,,,,,,,,wro69,001,,2023-10-16_11h00.55.828,Trial go no go,2020.2.10,MacIntel,60,IwAR1lpzRzgwvy8BhLb8FTyUULd88f_8vfeuA-BJvV7g6bVqrYEFPHxZ0sJE0,,,,,,,,,,,,,,,,0,0,24,24,35,1,N,space,,,
,,,,,,,,,,,,,,,,wro69,001,,2023-10-16_11h00.55.828,Trial go no go,2020.2.10,MacIntel,60,IwAR1lpzRzgwvy8BhLb8FTyUULd88f_8vfeuA-BJvV7g6bVqrYEFPHxZ0sJE0,,,,,,,,,,,,,,,,0,0,25,25,42,1,Y,space,,,
,,,,,,,,,,,,,,,,wro69,001,,2023-10-16_11h00.55.828,Trial go no go,2020.2.10,MacIntel,60,IwAR1lpzRzgwvy8BhLb8FTyUULd88f_8vfeuA-BJvV7g6bVqrYEFPHxZ0sJE0,,,,,,,,,,,,,,,,0,0,26,26,6,1,I,space,,,
,,,,,,,,,,,,,,,,wro69,001,,2023-10-16_11h00.55.828,Trial go no go,2020.2.10,MacIntel,60,IwAR1lpzRzgwvy8BhLb8FTyUULd88f_8vfeuA-BJvV7g6bVqrYEFPHxZ0sJE0,,,,,,,,,,,,,,,space,0,0,27,27,4,1,X,none,0.4671,,
,,,,,,,,,,,,,,,,wro69,001,,2023-10-16_11h00.55.828,Trial go no go,2020.2.10,MacIntel,60,IwAR1lpzRzgwvy8BhLb8FTyUULd88f_8vfeuA-BJvV7g6bVqrYEFPHxZ0sJE0,,,,,,,,,,,,,,,,0,0,28,28,31,1,L,space,,,
,,,,,,,,,,,,,,,,wro69,001,,2023-10-16_11h00.55.828,Trial go no go,2020.2.10,MacIntel,60,IwAR1lpzRzgwvy8BhLb8FTyUULd88f_8vfeuA-BJvV7g6bVqrYEFPHxZ0sJE0,,,,,,,,,,,,,,,,0,0,29,29,18,1,W,space,,,
,,,,,,,,,,,,,,,,wro69,001,,2023-10-16_11h00.55.828,Trial go no go,2020.2.10,MacIntel,60,IwAR1lpzRzgwvy8BhLb8FTyUULd88f_8vfeuA-BJvV7g6bVqrYEFPHxZ0sJE0,,,,,,,,,,,,,,,,0,0,30,30,16,1,N,space,,,
,,,,,,,,,,,,,,,,wro69,001,,2023-10-16_11h00.55.828,Trial go no go,2020.2.10,MacIntel,60,IwAR1lpzRzgwvy8BhLb8FTyUULd88f_8vfeuA-BJvV7g6bVqrYEFPHxZ0sJE0,,,,,,,,,,,,,,,,0,0,31,31,10,1,H,space,,,
,,,,,,,,,,,,,,,,wro69,001,,2023-10-16_11h00.55.828,Trial go no go,2020.2.10,MacIntel,60,IwAR1lpzRzgwvy8BhLb8FTyUULd88f_8vfeuA-BJvV7g6bVqrYEFPHxZ0sJE0,,,,,,,,,,,,,,,,0,0,32,32,11,1,K,space,,,
,,,,,,,,,,,,,,,,wro69,001,,2023-10-16_11h00.55.828,Trial go no go,2020.2.10,MacIntel,60,IwAR1lpzRzgwvy8BhLb8FTyUULd88f_8vfeuA-BJvV7g6bVqrYEFPHxZ0sJE0,,,,,,,,,,,,,,,space,0,0,33,33,44,1,X,none,0.4084,,
,,,,,,,,,,,,,,,,wro69,001,,2023-10-16_11h00.55.828,Trial go no go,2020.2.10,MacIntel,60,IwAR1lpzRzgwvy8BhLb8FTyUULd88f_8vfeuA-BJvV7g6bVqrYEFPHxZ0sJE0,,,,,,,,,,,,,,,,0,0,34,34,46,1,F,space,,,
,,,,,,,,,,,,,,,,wro69,001,,2023-10-16_11h00.55.828,Trial go no go,2020.2.10,MacIntel,60,IwAR1lpzRzgwvy8BhLb8FTyUULd88f_8vfeuA-BJvV7g6bVqrYEFPHxZ0sJE0,,,,,,,,,,,,,,,,0,0,35,35,28,1,H,space,,,
,,,,,,,,,,,,,,,,wro69,001,,2023-10-16_11h00.55.828,Trial go no go,2020.2.10,MacIntel,60,IwAR1lpzRzgwvy8BhLb8FTyUULd88f_8vfeuA-BJvV7g6bVqrYEFPHxZ0sJE0,,,,,,,,,,,,,,,,0,0,36,36,3,1,T,space,,,
,,,,,,,,,,,,,,,,wro69,001,,2023-10-16_11h00.55.828,Trial go no go,2020.2.10,MacIntel,60,IwAR1lpzRzgwvy8BhLb8FTyUULd88f_8vfeuA-BJvV7g6bVqrYEFPHxZ0sJE0,,,,,,,,,,,,,,,space,0,0,37,37,14,1,X,none,0.499,,
,,,,,,,,,,,,,,,,wro69,001,,2023-10-16_11h00.55.828,Trial go no go,2020.2.10,MacIntel,60,IwAR1lpzRzgwvy8BhLb8FTyUULd88f_8vfeuA-BJvV7g6bVqrYEFPHxZ0sJE0,,,,,,,,,,,,,,,space,0,0,38,38,19,1,X,none,0.6535,,
,,,,,,,,,,,,,,,,wro69,001,,2023-10-16_11h00.55.828,Trial go no go,2020.2.10,MacIntel,60,IwAR1lpzRzgwvy8BhLb8FTyUULd88f_8vfeuA-BJvV7g6bVqrYEFPHxZ0sJE0,,,,,,,,,,,,,,,,0,0,39,39,45,1,A,space,,,
,,,,,,,,,,,,,,,,wro69,001,,2023-10-16_11h00.55.828,Trial go no go,2020.2.10,MacIntel,60,IwAR1lpzRzgwvy8BhLb8FTyUULd88f_8vfeuA-BJvV7g6bVqrYEFPHxZ0sJE0,,,,,,,,,,,,,,,,0,0,40,40,41,1,T,space,,,
,,,,,,,,,,,,,,,,wro69,001,,2023-10-16_11h00.55.828,Trial go no go,2020.2.10,MacIntel,60,IwAR1lpzRzgwvy8BhLb8FTyUULd88f_8vfeuA-BJvV7g6bVqrYEFPHxZ0sJE0,,,,,,,,,,,,,,,,0,0,41,41,23,1,Y,space,,,
,,,,,,,,,,,,,,,,wro69,001,,2023-10-16_11h00.55.828,Trial go no go,2020.2.10,MacIntel,60,IwAR1lpzRzgwvy8BhLb8FTyUULd88f_8vfeuA-BJvV7g6bVqrYEFPHxZ0sJE0,,,,,,,,,,,,,,,space,0,0,42,42,34,1,X,none,0.4418,,
,,,,,,,,,,,,,,,,wro69,001,,2023-10-16_11h00.55.828,Trial go no go,2020.2.10,MacIntel,60,IwAR1lpzRzgwvy8BhLb8FTyUULd88f_8vfeuA-BJvV7g6bVqrYEFPHxZ0sJE0,,,,,,,,,,,,,,,,0,0,43,43,43,1,I,space,,,
,,,,,,,,,,,,,,,,wro69,001,,2023-10-16_11h00.55.828,Trial go no go,2020.2.10,MacIntel,60,IwAR1lpzRzgwvy8BhLb8FTyUULd88f_8vfeuA-BJvV7g6bVqrYEFPHxZ0sJE0,,,,,,,,,,,,,,,space,0,0,44,44,29,1,X,none,0.4454,,
,,,,,,,,,,,,,,,,wro69,001,,2023-10-16_11h00.55.828,Trial go no go,2020.2.10,MacIntel,60,IwAR1lpzRzgwvy8BhLb8FTyUULd88f_8vfeuA-BJvV7g6bVqrYEFPHxZ0sJE0,,,,,,,,,,,,,,,,0,0,45,45,33,1,V,space,,,
,,,,,,,,,,,,,,,,wro69,001,,2023-10-16_11h00.55.828,Trial go no go,2020.2.10,MacIntel,60,IwAR1lpzRzgwvy8BhLb8FTyUULd88f_8vfeuA-BJvV7g6bVqrYEFPHxZ0sJE0,,,,,,,,,,,,,,,space,0,0,46,46,39,1,X,none,0.4614,,
,,,,,,,,,,,,,,,,wro69,001,,2023-10-16_11h00.55.828,Trial go no go,2020.2.10,MacIntel,60,IwAR1lpzRzgwvy8BhLb8FTyUULd88f_8vfeuA-BJvV7g6bVqrYEFPHxZ0sJE0,,,,,,,,,,,,,,,,0,0,47,47,36,1,M,space,,,
,,,,,,,,,,,,,,,,wro69,001,,2023-10-16_11h00.55.828,Trial go no go,2020.2.10,MacIntel,60,IwAR1lpzRzgwvy8BhLb8FTyUULd88f_8vfeuA-BJvV7g6bVqrYEFPHxZ0sJE0,,,,,,,,,,,,,,,,0,0,48,48,22,1,T,space,,,
,,,,,,,,,,,,,,,,wro69,001,,2023-10-16_11h00.55.828,Trial go no go,2020.2.10,MacIntel,60,IwAR1lpzRzgwvy8BhLb8FTyUULd88f_8vfeuA-BJvV7g6bVqrYEFPHxZ0sJE0,,,,,,,,,,,,,,,,0,0,49,49,38,1,E,space,,,
,,,,,,,,,,,,,,,,wro69,001,,2023-10-16_11h00.55.828,Trial go no go,2020.2.10,MacIntel,60,IwAR1lpzRzgwvy8BhLb8FTyUULd88f_8vfeuA-BJvV7g6bVqrYEFPHxZ0sJE0,,,,,,,,,,,,,,,,,,,,,,,,,space,29.5816
