resp_Welcome.keys,resp_Welcome.rt,resp_Instr_Intro.keys,resp_Instr_Intro.rt,resp_Instr_Prac1.keys,resp_Instr_Prac1.rt,resp_trial_Prac1.keys,resp_trial_Prac1.corr,resp_trial_Prac1.rt,prac_trials.thisRepN,prac_trials.thisTrialN,prac_trials.thisN,prac_trials.thisIndex,prac_trials.ran,stimulus_prac1,corrAns_prac1,participant,session,indywidualny kod,date,expName,psychopyVersion,OS,frameRate,fbclid,resp_Instr_Test1.keys,resp_Instr_Test1.rt,resp_trial_Test1.keys,resp_trial_Test1.corr,test1trial.thisRepN,test1trial.thisTrialN,test1trial.thisN,test1trial.thisIndex,test1trial.ran,stimulus_test1,corrAns_test1,resp_trial_Test1.rt,resp_Instr_Test2.keys,resp_Instr_Test2.rt,key_resp_Test2.keys,key_resp_Test2.corr,key_resp_Test2.rt,test2trial.thisRepN,test2trial.thisTrialN,test2trial.thisN,test2trial.thisIndex,test2trial.ran,stimulus_test2,corrAns_test2,resp_theEnd.keys,resp_theEnd.rt
space,20.4437,space,4.7565,space,4.7923,space,1,0.5755,0,0,0,8,1,X,space,wro64,001,,2023-08-30_09h02.07.188,Trial go no go,2020.2.10,MacIntel,60,IwAR3VhMNDIUixa3ywMN-9DSfczhiSQ8L9ytFZWc2Xai5UzT2wWpwDZlTaa-M,,,,,,,,,,,,,,,,,,,,,,,,,,
,,,,,,space,1,0.5163,0,1,1,13,1,X,space,wro64,001,,2023-08-30_09h02.07.188,Trial go no go,2020.2.10,MacIntel,60,IwAR3VhMNDIUixa3ywMN-9DSfczhiSQ8L9ytFZWc2Xai5UzT2wWpwDZlTaa-M,,,,,,,,,,,,,,,,,,,,,,,,,,
,,,,,,space,1,0.4327,0,2,2,10,1,X,space,wro64,001,,2023-08-30_09h02.07.188,Trial go no go,2020.2.10,MacIntel,60,IwAR3VhMNDIUixa3ywMN-9DSfczhiSQ8L9ytFZWc2Xai5UzT2wWpwDZlTaa-M,,,,,,,,,,,,,,,,,,,,,,,,,,
,,,,,,,1,,0,3,3,4,1,W,none,wro64,001,,2023-08-30_09h02.07.188,Trial go no go,2020.2.10,MacIntel,60,IwAR3VhMNDIUixa3ywMN-9DSfczhiSQ8L9ytFZWc2Xai5UzT2wWpwDZlTaa-M,,,,,,,,,,,,,,,,,,,,,,,,,,
,,,,,,space,1,0.443,0,4,4,11,1,X,space,wro64,001,,2023-08-30_09h02.07.188,Trial go no go,2020.2.10,MacIntel,60,IwAR3VhMNDIUixa3ywMN-9DSfczhiSQ8L9ytFZWc2Xai5UzT2wWpwDZlTaa-M,,,,,,,,,,,,,,,,,,,,,,,,,,
,,,,,,,1,,0,5,5,14,1,K,none,wro64,001,,2023-08-30_09h02.07.188,Trial go no go,2020.2.10,MacIntel,60,IwAR3VhMNDIUixa3ywMN-9DSfczhiSQ8L9ytFZWc2Xai5UzT2wWpwDZlTaa-M,,,,,,,,,,,,,,,,,,,,,,,,,,
,,,,,,space,1,0.8283,0,6,6,0,1,X,space,wro64,001,,2023-08-30_09h02.07.188,Trial go no go,2020.2.10,MacIntel,60,IwAR3VhMNDIUixa3ywMN-9DSfczhiSQ8L9ytFZWc2Xai5UzT2wWpwDZlTaa-M,,,,,,,,,,,,,,,,,,,,,,,,,,
,,,,,,space,1,0.4169,0,7,7,6,1,X,space,wro64,001,,2023-08-30_09h02.07.188,Trial go no go,2020.2.10,MacIntel,60,IwAR3VhMNDIUixa3ywMN-9DSfczhiSQ8L9ytFZWc2Xai5UzT2wWpwDZlTaa-M,,,,,,,,,,,,,,,,,,,,,,,,,,
,,,,,,space,1,0.402,0,8,8,12,1,X,space,wro64,001,,2023-08-30_09h02.07.188,Trial go no go,2020.2.10,MacIntel,60,IwAR3VhMNDIUixa3ywMN-9DSfczhiSQ8L9ytFZWc2Xai5UzT2wWpwDZlTaa-M,,,,,,,,,,,,,,,,,,,,,,,,,,
,,,,,,space,1,0.4513,0,9,9,2,1,X,space,wro64,001,,2023-08-30_09h02.07.188,Trial go no go,2020.2.10,MacIntel,60,IwAR3VhMNDIUixa3ywMN-9DSfczhiSQ8L9ytFZWc2Xai5UzT2wWpwDZlTaa-M,,,,,,,,,,,,,,,,,,,,,,,,,,
,,,,,,space,1,0.4209,0,10,10,3,1,X,space,wro64,001,,2023-08-30_09h02.07.188,Trial go no go,2020.2.10,MacIntel,60,IwAR3VhMNDIUixa3ywMN-9DSfczhiSQ8L9ytFZWc2Xai5UzT2wWpwDZlTaa-M,,,,,,,,,,,,,,,,,,,,,,,,,,
,,,,,,space,1,0.4495,0,11,11,7,1,X,space,wro64,001,,2023-08-30_09h02.07.188,Trial go no go,2020.2.10,MacIntel,60,IwAR3VhMNDIUixa3ywMN-9DSfczhiSQ8L9ytFZWc2Xai5UzT2wWpwDZlTaa-M,,,,,,,,,,,,,,,,,,,,,,,,,,
,,,,,,space,1,0.4841,0,12,12,1,1,X,space,wro64,001,,2023-08-30_09h02.07.188,Trial go no go,2020.2.10,MacIntel,60,IwAR3VhMNDIUixa3ywMN-9DSfczhiSQ8L9ytFZWc2Xai5UzT2wWpwDZlTaa-M,,,,,,,,,,,,,,,,,,,,,,,,,,
,,,,,,,1,,0,13,13,9,1,V,none,wro64,001,,2023-08-30_09h02.07.188,Trial go no go,2020.2.10,MacIntel,60,IwAR3VhMNDIUixa3ywMN-9DSfczhiSQ8L9ytFZWc2Xai5UzT2wWpwDZlTaa-M,,,,,,,,,,,,,,,,,,,,,,,,,,
,,,,,,space,1,0.4147,0,14,14,5,1,X,space,wro64,001,,2023-08-30_09h02.07.188,Trial go no go,2020.2.10,MacIntel,60,IwAR3VhMNDIUixa3ywMN-9DSfczhiSQ8L9ytFZWc2Xai5UzT2wWpwDZlTaa-M,,,,,,,,,,,,,,,,,,,,,,,,,,
,,,,,,,,,,,,,,,,wro64,001,,2023-08-30_09h02.07.188,Trial go no go,2020.2.10,MacIntel,60,IwAR3VhMNDIUixa3ywMN-9DSfczhiSQ8L9ytFZWc2Xai5UzT2wWpwDZlTaa-M,space,9.3016,,0,0,0,0,8,1,X,space,,,,,,,,,,,,,,,
,,,,,,,,,,,,,,,,wro64,001,,2023-08-30_09h02.07.188,Trial go no go,2020.2.10,MacIntel,60,IwAR3VhMNDIUixa3ywMN-9DSfczhiSQ8L9ytFZWc2Xai5UzT2wWpwDZlTaa-M,,,space,1,0,1,1,23,1,X,space,0.4025,,,,,,,,,,,,,,
,,,,,,,,,,,,,,,,wro64,001,,2023-08-30_09h02.07.188,Trial go no go,2020.2.10,MacIntel,60,IwAR3VhMNDIUixa3ywMN-9DSfczhiSQ8L9ytFZWc2Xai5UzT2wWpwDZlTaa-M,,,space,1,0,2,2,21,1,X,space,0.2681,,,,,,,,,,,,,,
,,,,,,,,,,,,,,,,wro64,001,,2023-08-30_09h02.07.188,Trial go no go,2020.2.10,MacIntel,60,IwAR3VhMNDIUixa3ywMN-9DSfczhiSQ8L9ytFZWc2Xai5UzT2wWpwDZlTaa-M,,,space,1,0,3,3,20,1,X,space,0.27,,,,,,,,,,,,,,
,,,,,,,,,,,,,,,,wro64,001,,2023-08-30_09h02.07.188,Trial go no go,2020.2.10,MacIntel,60,IwAR3VhMNDIUixa3ywMN-9DSfczhiSQ8L9ytFZWc2Xai5UzT2wWpwDZlTaa-M,,,space,1,0,4,4,45,1,X,space,0.3167,,,,,,,,,,,,,,
,,,,,,,,,,,,,,,,wro64,001,,2023-08-30_09h02.07.188,Trial go no go,2020.2.10,MacIntel,60,IwAR3VhMNDIUixa3ywMN-9DSfczhiSQ8L9ytFZWc2Xai5UzT2wWpwDZlTaa-M,,,space,1,0,5,5,42,1,X,space,0.3962,,,,,,,,,,,,,,
,,,,,,,,,,,,,,,,wro64,001,,2023-08-30_09h02.07.188,Trial go no go,2020.2.10,MacIntel,60,IwAR3VhMNDIUixa3ywMN-9DSfczhiSQ8L9ytFZWc2Xai5UzT2wWpwDZlTaa-M,,,,1,0,6,6,19,1,K,none,,,,,,,,,,,,,,,
,,,,,,,,,,,,,,,,wro64,001,,2023-08-30_09h02.07.188,Trial go no go,2020.2.10,MacIntel,60,IwAR3VhMNDIUixa3ywMN-9DSfczhiSQ8L9ytFZWc2Xai5UzT2wWpwDZlTaa-M,,,space,1,0,7,7,0,1,X,space,0.3761,,,,,,,,,,,,,,
,,,,,,,,,,,,,,,,wro64,001,,2023-08-30_09h02.07.188,Trial go no go,2020.2.10,MacIntel,60,IwAR3VhMNDIUixa3ywMN-9DSfczhiSQ8L9ytFZWc2Xai5UzT2wWpwDZlTaa-M,,,space,1,0,8,8,35,1,X,space,0.4878,,,,,,,,,,,,,,
,,,,,,,,,,,,,,,,wro64,001,,2023-08-30_09h02.07.188,Trial go no go,2020.2.10,MacIntel,60,IwAR3VhMNDIUixa3ywMN-9DSfczhiSQ8L9ytFZWc2Xai5UzT2wWpwDZlTaa-M,,,,1,0,9,9,4,1,V,none,,,,,,,,,,,,,,,
,,,,,,,,,,,,,,,,wro64,001,,2023-08-30_09h02.07.188,Trial go no go,2020.2.10,MacIntel,60,IwAR3VhMNDIUixa3ywMN-9DSfczhiSQ8L9ytFZWc2Xai5UzT2wWpwDZlTaa-M,,,space,1,0,10,10,28,1,X,space,0.2766,,,,,,,,,,,,,,
,,,,,,,,,,,,,,,,wro64,001,,2023-08-30_09h02.07.188,Trial go no go,2020.2.10,MacIntel,60,IwAR3VhMNDIUixa3ywMN-9DSfczhiSQ8L9ytFZWc2Xai5UzT2wWpwDZlTaa-M,,,space,1,0,11,11,6,1,X,space,0.3807,,,,,,,,,,,,,,
,,,,,,,,,,,,,,,,wro64,001,,2023-08-30_09h02.07.188,Trial go no go,2020.2.10,MacIntel,60,IwAR3VhMNDIUixa3ywMN-9DSfczhiSQ8L9ytFZWc2Xai5UzT2wWpwDZlTaa-M,,,space,1,0,12,12,38,1,X,space,0.349,,,,,,,,,,,,,,
,,,,,,,,,,,,,,,,wro64,001,,2023-08-30_09h02.07.188,Trial go no go,2020.2.10,MacIntel,60,IwAR3VhMNDIUixa3ywMN-9DSfczhiSQ8L9ytFZWc2Xai5UzT2wWpwDZlTaa-M,,,space,1,0,13,13,12,1,X,space,0.3689,,,,,,,,,,,,,,
,,,,,,,,,,,,,,,,wro64,001,,2023-08-30_09h02.07.188,Trial go no go,2020.2.10,MacIntel,60,IwAR3VhMNDIUixa3ywMN-9DSfczhiSQ8L9ytFZWc2Xai5UzT2wWpwDZlTaa-M,,,space,1,0,14,14,30,1,X,space,0.3345,,,,,,,,,,,,,,
,,,,,,,,,,,,,,,,wro64,001,,2023-08-30_09h02.07.188,Trial go no go,2020.2.10,MacIntel,60,IwAR3VhMNDIUixa3ywMN-9DSfczhiSQ8L9ytFZWc2Xai5UzT2wWpwDZlTaa-M,,,,1,0,15,15,44,1,F,none,,,,,,,,,,,,,,,
,,,,,,,,,,,,,,,,wro64,001,,2023-08-30_09h02.07.188,Trial go no go,2020.2.10,MacIntel,60,IwAR3VhMNDIUixa3ywMN-9DSfczhiSQ8L9ytFZWc2Xai5UzT2wWpwDZlTaa-M,,,space,1,0,16,16,15,1,X,space,0.4444,,,,,,,,,,,,,,
,,,,,,,,,,,,,,,,wro64,001,,2023-08-30_09h02.07.188,Trial go no go,2020.2.10,MacIntel,60,IwAR3VhMNDIUixa3ywMN-9DSfczhiSQ8L9ytFZWc2Xai5UzT2wWpwDZlTaa-M,,,space,1,0,17,17,37,1,X,space,0.4026,,,,,,,,,,,,,,
,,,,,,,,,,,,,,,,wro64,001,,2023-08-30_09h02.07.188,Trial go no go,2020.2.10,MacIntel,60,IwAR3VhMNDIUixa3ywMN-9DSfczhiSQ8L9ytFZWc2Xai5UzT2wWpwDZlTaa-M,,,,1,0,18,18,24,1,H,none,,,,,,,,,,,,,,,
,,,,,,,,,,,,,,,,wro64,001,,2023-08-30_09h02.07.188,Trial go no go,2020.2.10,MacIntel,60,IwAR3VhMNDIUixa3ywMN-9DSfczhiSQ8L9ytFZWc2Xai5UzT2wWpwDZlTaa-M,,,space,1,0,19,19,40,1,X,space,0.3297,,,,,,,,,,,,,,
,,,,,,,,,,,,,,,,wro64,001,,2023-08-30_09h02.07.188,Trial go no go,2020.2.10,MacIntel,60,IwAR3VhMNDIUixa3ywMN-9DSfczhiSQ8L9ytFZWc2Xai5UzT2wWpwDZlTaa-M,,,,1,0,20,20,14,1,Y,none,,,,,,,,,,,,,,,
,,,,,,,,,,,,,,,,wro64,001,,2023-08-30_09h02.07.188,Trial go no go,2020.2.10,MacIntel,60,IwAR3VhMNDIUixa3ywMN-9DSfczhiSQ8L9ytFZWc2Xai5UzT2wWpwDZlTaa-M,,,,1,0,21,21,9,1,W,none,,,,,,,,,,,,,,,
,,,,,,,,,,,,,,,,wro64,001,,2023-08-30_09h02.07.188,Trial go no go,2020.2.10,MacIntel,60,IwAR3VhMNDIUixa3ywMN-9DSfczhiSQ8L9ytFZWc2Xai5UzT2wWpwDZlTaa-M,,,space,1,0,22,22,27,1,X,space,0.3024,,,,,,,,,,,,,,
,,,,,,,,,,,,,,,,wro64,001,,2023-08-30_09h02.07.188,Trial go no go,2020.2.10,MacIntel,60,IwAR3VhMNDIUixa3ywMN-9DSfczhiSQ8L9ytFZWc2Xai5UzT2wWpwDZlTaa-M,,,space,1,0,23,23,47,1,X,space,0.3197,,,,,,,,,,,,,,
,,,,,,,,,,,,,,,,wro64,001,,2023-08-30_09h02.07.188,Trial go no go,2020.2.10,MacIntel,60,IwAR3VhMNDIUixa3ywMN-9DSfczhiSQ8L9ytFZWc2Xai5UzT2wWpwDZlTaa-M,,,space,1,0,24,24,13,1,X,space,0.2994,,,,,,,,,,,,,,
,,,,,,,,,,,,,,,,wro64,001,,2023-08-30_09h02.07.188,Trial go no go,2020.2.10,MacIntel,60,IwAR3VhMNDIUixa3ywMN-9DSfczhiSQ8L9ytFZWc2Xai5UzT2wWpwDZlTaa-M,,,space,0,0,25,25,29,1,T,none,0.2927,,,,,,,,,,,,,,
,,,,,,,,,,,,,,,,wro64,001,,2023-08-30_09h02.07.188,Trial go no go,2020.2.10,MacIntel,60,IwAR3VhMNDIUixa3ywMN-9DSfczhiSQ8L9ytFZWc2Xai5UzT2wWpwDZlTaa-M,,,space,1,0,26,26,26,1,X,space,0.4167,,,,,,,,,,,,,,
,,,,,,,,,,,,,,,,wro64,001,,2023-08-30_09h02.07.188,Trial go no go,2020.2.10,MacIntel,60,IwAR3VhMNDIUixa3ywMN-9DSfczhiSQ8L9ytFZWc2Xai5UzT2wWpwDZlTaa-M,,,space,1,0,27,27,48,1,X,space,0.6387,,,,,,,,,,,,,,
,,,,,,,,,,,,,,,,wro64,001,,2023-08-30_09h02.07.188,Trial go no go,2020.2.10,MacIntel,60,IwAR3VhMNDIUixa3ywMN-9DSfczhiSQ8L9ytFZWc2Xai5UzT2wWpwDZlTaa-M,,,,1,0,28,28,39,1,M,none,,,,,,,,,,,,,,,
,,,,,,,,,,,,,,,,wro64,001,,2023-08-30_09h02.07.188,Trial go no go,2020.2.10,MacIntel,60,IwAR3VhMNDIUixa3ywMN-9DSfczhiSQ8L9ytFZWc2Xai5UzT2wWpwDZlTaa-M,,,space,1,0,29,29,46,1,X,space,0.3302,,,,,,,,,,,,,,
,,,,,,,,,,,,,,,,wro64,001,,2023-08-30_09h02.07.188,Trial go no go,2020.2.10,MacIntel,60,IwAR3VhMNDIUixa3ywMN-9DSfczhiSQ8L9ytFZWc2Xai5UzT2wWpwDZlTaa-M,,,space,1,0,30,30,16,1,X,space,0.3473,,,,,,,,,,,,,,
,,,,,,,,,,,,,,,,wro64,001,,2023-08-30_09h02.07.188,Trial go no go,2020.2.10,MacIntel,60,IwAR3VhMNDIUixa3ywMN-9DSfczhiSQ8L9ytFZWc2Xai5UzT2wWpwDZlTaa-M,,,space,1,0,31,31,36,1,X,space,0.4005,,,,,,,,,,,,,,
,,,,,,,,,,,,,,,,wro64,001,,2023-08-30_09h02.07.188,Trial go no go,2020.2.10,MacIntel,60,IwAR3VhMNDIUixa3ywMN-9DSfczhiSQ8L9ytFZWc2Xai5UzT2wWpwDZlTaa-M,,,space,1,0,32,32,33,1,X,space,0.3496,,,,,,,,,,,,,,
,,,,,,,,,,,,,,,,wro64,001,,2023-08-30_09h02.07.188,Trial go no go,2020.2.10,MacIntel,60,IwAR3VhMNDIUixa3ywMN-9DSfczhiSQ8L9ytFZWc2Xai5UzT2wWpwDZlTaa-M,,,space,1,0,33,33,2,1,X,space,0.4663,,,,,,,,,,,,,,
,,,,,,,,,,,,,,,,wro64,001,,2023-08-30_09h02.07.188,Trial go no go,2020.2.10,MacIntel,60,IwAR3VhMNDIUixa3ywMN-9DSfczhiSQ8L9ytFZWc2Xai5UzT2wWpwDZlTaa-M,,,space,1,0,34,34,22,1,X,space,0.7312,,,,,,,,,,,,,,
,,,,,,,,,,,,,,,,wro64,001,,2023-08-30_09h02.07.188,Trial go no go,2020.2.10,MacIntel,60,IwAR3VhMNDIUixa3ywMN-9DSfczhiSQ8L9ytFZWc2Xai5UzT2wWpwDZlTaa-M,,,space,1,0,35,35,25,1,X,space,0.4896,,,,,,,,,,,,,,
,,,,,,,,,,,,,,,,wro64,001,,2023-08-30_09h02.07.188,Trial go no go,2020.2.10,MacIntel,60,IwAR3VhMNDIUixa3ywMN-9DSfczhiSQ8L9ytFZWc2Xai5UzT2wWpwDZlTaa-M,,,space,1,0,36,36,7,1,X,space,0.4024,,,,,,,,,,,,,,
,,,,,,,,,,,,,,,,wro64,001,,2023-08-30_09h02.07.188,Trial go no go,2020.2.10,MacIntel,60,IwAR3VhMNDIUixa3ywMN-9DSfczhiSQ8L9ytFZWc2Xai5UzT2wWpwDZlTaa-M,,,space,1,0,37,37,10,1,X,space,0.3488,,,,,,,,,,,,,,
,,,,,,,,,,,,,,,,wro64,001,,2023-08-30_09h02.07.188,Trial go no go,2020.2.10,MacIntel,60,IwAR3VhMNDIUixa3ywMN-9DSfczhiSQ8L9ytFZWc2Xai5UzT2wWpwDZlTaa-M,,,,1,0,38,38,34,1,N,none,,,,,,,,,,,,,,,
,,,,,,,,,,,,,,,,wro64,001,,2023-08-30_09h02.07.188,Trial go no go,2020.2.10,MacIntel,60,IwAR3VhMNDIUixa3ywMN-9DSfczhiSQ8L9ytFZWc2Xai5UzT2wWpwDZlTaa-M,,,space,1,0,39,39,32,1,X,space,0.3614,,,,,,,,,,,,,,
,,,,,,,,,,,,,,,,wro64,001,,2023-08-30_09h02.07.188,Trial go no go,2020.2.10,MacIntel,60,IwAR3VhMNDIUixa3ywMN-9DSfczhiSQ8L9ytFZWc2Xai5UzT2wWpwDZlTaa-M,,,space,1,0,40,40,3,1,X,space,0.2962,,,,,,,,,,,,,,
,,,,,,,,,,,,,,,,wro64,001,,2023-08-30_09h02.07.188,Trial go no go,2020.2.10,MacIntel,60,IwAR3VhMNDIUixa3ywMN-9DSfczhiSQ8L9ytFZWc2Xai5UzT2wWpwDZlTaa-M,,,space,1,0,41,41,5,1,X,space,0.288,,,,,,,,,,,,,,
,,,,,,,,,,,,,,,,wro64,001,,2023-08-30_09h02.07.188,Trial go no go,2020.2.10,MacIntel,60,IwAR3VhMNDIUixa3ywMN-9DSfczhiSQ8L9ytFZWc2Xai5UzT2wWpwDZlTaa-M,,,space,1,0,42,42,31,1,X,space,0.314,,,,,,,,,,,,,,
,,,,,,,,,,,,,,,,wro64,001,,2023-08-30_09h02.07.188,Trial go no go,2020.2.10,MacIntel,60,IwAR3VhMNDIUixa3ywMN-9DSfczhiSQ8L9ytFZWc2Xai5UzT2wWpwDZlTaa-M,,,space,1,0,43,43,43,1,X,space,0.3044,,,,,,,,,,,,,,
,,,,,,,,,,,,,,,,wro64,001,,2023-08-30_09h02.07.188,Trial go no go,2020.2.10,MacIntel,60,IwAR3VhMNDIUixa3ywMN-9DSfczhiSQ8L9ytFZWc2Xai5UzT2wWpwDZlTaa-M,,,space,1,0,44,44,17,1,X,space,0.4342,,,,,,,,,,,,,,
,,,,,,,,,,,,,,,,wro64,001,,2023-08-30_09h02.07.188,Trial go no go,2020.2.10,MacIntel,60,IwAR3VhMNDIUixa3ywMN-9DSfczhiSQ8L9ytFZWc2Xai5UzT2wWpwDZlTaa-M,,,space,1,0,45,45,41,1,X,space,0.3993,,,,,,,,,,,,,,
,,,,,,,,,,,,,,,,wro64,001,,2023-08-30_09h02.07.188,Trial go no go,2020.2.10,MacIntel,60,IwAR3VhMNDIUixa3ywMN-9DSfczhiSQ8L9ytFZWc2Xai5UzT2wWpwDZlTaa-M,,,space,0,0,46,46,49,1,E,none,0.3499,,,,,,,,,,,,,,
,,,,,,,,,,,,,,,,wro64,001,,2023-08-30_09h02.07.188,Trial go no go,2020.2.10,MacIntel,60,IwAR3VhMNDIUixa3ywMN-9DSfczhiSQ8L9ytFZWc2Xai5UzT2wWpwDZlTaa-M,,,space,1,0,47,47,18,1,X,space,0.4117,,,,,,,,,,,,,,
,,,,,,,,,,,,,,,,wro64,001,,2023-08-30_09h02.07.188,Trial go no go,2020.2.10,MacIntel,60,IwAR3VhMNDIUixa3ywMN-9DSfczhiSQ8L9ytFZWc2Xai5UzT2wWpwDZlTaa-M,,,space,1,0,48,48,11,1,X,space,0.4718,,,,,,,,,,,,,,
,,,,,,,,,,,,,,,,wro64,001,,2023-08-30_09h02.07.188,Trial go no go,2020.2.10,MacIntel,60,IwAR3VhMNDIUixa3ywMN-9DSfczhiSQ8L9ytFZWc2Xai5UzT2wWpwDZlTaa-M,,,space,1,0,49,49,1,1,X,space,0.3713,,,,,,,,,,,,,,
,,,,,,,,,,,,,,,,wro64,001,,2023-08-30_09h02.07.188,Trial go no go,2020.2.10,MacIntel,60,IwAR3VhMNDIUixa3ywMN-9DSfczhiSQ8L9ytFZWc2Xai5UzT2wWpwDZlTaa-M,,,,,,,,,,,,,z,13.4204,space,1,0.8199,0,0,0,8,1,F,space,,
,,,,,,,,,,,,,,,,wro64,001,,2023-08-30_09h02.07.188,Trial go no go,2020.2.10,MacIntel,60,IwAR3VhMNDIUixa3ywMN-9DSfczhiSQ8L9ytFZWc2Xai5UzT2wWpwDZlTaa-M,,,,,,,,,,,,,,,space,1,0.5239,0,1,1,7,1,A,space,,
,,,,,,,,,,,,,,,,wro64,001,,2023-08-30_09h02.07.188,Trial go no go,2020.2.10,MacIntel,60,IwAR3VhMNDIUixa3ywMN-9DSfczhiSQ8L9ytFZWc2Xai5UzT2wWpwDZlTaa-M,,,,,,,,,,,,,,,space,1,0.2952,0,2,2,22,1,T,space,,
,,,,,,,,,,,,,,,,wro64,001,,2023-08-30_09h02.07.188,Trial go no go,2020.2.10,MacIntel,60,IwAR3VhMNDIUixa3ywMN-9DSfczhiSQ8L9ytFZWc2Xai5UzT2wWpwDZlTaa-M,,,,,,,,,,,,,,,space,0,0.276,0,3,3,4,1,X,none,,
,,,,,,,,,,,,,,,,wro64,001,,2023-08-30_09h02.07.188,Trial go no go,2020.2.10,MacIntel,60,IwAR3VhMNDIUixa3ywMN-9DSfczhiSQ8L9ytFZWc2Xai5UzT2wWpwDZlTaa-M,,,,,,,,,,,,,,,space,1,0.2451,0,4,4,27,1,F,space,,
,,,,,,,,,,,,,,,,wro64,001,,2023-08-30_09h02.07.188,Trial go no go,2020.2.10,MacIntel,60,IwAR3VhMNDIUixa3ywMN-9DSfczhiSQ8L9ytFZWc2Xai5UzT2wWpwDZlTaa-M,,,,,,,,,,,,,,,space,1,0.4285,0,5,5,42,1,Y,space,,
,,,,,,,,,,,,,,,,wro64,001,,2023-08-30_09h02.07.188,Trial go no go,2020.2.10,MacIntel,60,IwAR3VhMNDIUixa3ywMN-9DSfczhiSQ8L9ytFZWc2Xai5UzT2wWpwDZlTaa-M,,,,,,,,,,,,,,,space,1,0.3613,0,6,6,16,1,N,space,,
,,,,,,,,,,,,,,,,wro64,001,,2023-08-30_09h02.07.188,Trial go no go,2020.2.10,MacIntel,60,IwAR3VhMNDIUixa3ywMN-9DSfczhiSQ8L9ytFZWc2Xai5UzT2wWpwDZlTaa-M,,,,,,,,,,,,,,,,1,,0,7,7,19,1,X,none,,
,,,,,,,,,,,,,,,,wro64,001,,2023-08-30_09h02.07.188,Trial go no go,2020.2.10,MacIntel,60,IwAR3VhMNDIUixa3ywMN-9DSfczhiSQ8L9ytFZWc2Xai5UzT2wWpwDZlTaa-M,,,,,,,,,,,,,,,space,0,0.3147,0,8,8,49,1,X,none,,
,,,,,,,,,,,,,,,,wro64,001,,2023-08-30_09h02.07.188,Trial go no go,2020.2.10,MacIntel,60,IwAR3VhMNDIUixa3ywMN-9DSfczhiSQ8L9ytFZWc2Xai5UzT2wWpwDZlTaa-M,,,,,,,,,,,,,,,,0,,0,9,9,10,1,H,space,,
,,,,,,,,,,,,,,,,wro64,001,,2023-08-30_09h02.07.188,Trial go no go,2020.2.10,MacIntel,60,IwAR3VhMNDIUixa3ywMN-9DSfczhiSQ8L9ytFZWc2Xai5UzT2wWpwDZlTaa-M,,,,,,,,,,,,,,,space,1,0.3182,0,10,10,33,1,V,space,,
,,,,,,,,,,,,,,,,wro64,001,,2023-08-30_09h02.07.188,Trial go no go,2020.2.10,MacIntel,60,IwAR3VhMNDIUixa3ywMN-9DSfczhiSQ8L9ytFZWc2Xai5UzT2wWpwDZlTaa-M,,,,,,,,,,,,,,,space,1,0.3323,0,11,11,21,1,R,space,,
,,,,,,,,,,,,,,,,wro64,001,,2023-08-30_09h02.07.188,Trial go no go,2020.2.10,MacIntel,60,IwAR3VhMNDIUixa3ywMN-9DSfczhiSQ8L9ytFZWc2Xai5UzT2wWpwDZlTaa-M,,,,,,,,,,,,,,,space,1,0.3608,0,12,12,32,1,Z,space,,
,,,,,,,,,,,,,,,,wro64,001,,2023-08-30_09h02.07.188,Trial go no go,2020.2.10,MacIntel,60,IwAR3VhMNDIUixa3ywMN-9DSfczhiSQ8L9ytFZWc2Xai5UzT2wWpwDZlTaa-M,,,,,,,,,,,,,,,,1,,0,13,13,29,1,X,none,,
,,,,,,,,,,,,,,,,wro64,001,,2023-08-30_09h02.07.188,Trial go no go,2020.2.10,MacIntel,60,IwAR3VhMNDIUixa3ywMN-9DSfczhiSQ8L9ytFZWc2Xai5UzT2wWpwDZlTaa-M,,,,,,,,,,,,,,,space,1,0.3778,0,14,14,0,1,W,space,,
,,,,,,,,,,,,,,,,wro64,001,,2023-08-30_09h02.07.188,Trial go no go,2020.2.10,MacIntel,60,IwAR3VhMNDIUixa3ywMN-9DSfczhiSQ8L9ytFZWc2Xai5UzT2wWpwDZlTaa-M,,,,,,,,,,,,,,,space,1,0.3663,0,15,15,25,1,I,space,,
,,,,,,,,,,,,,,,,wro64,001,,2023-08-30_09h02.07.188,Trial go no go,2020.2.10,MacIntel,60,IwAR3VhMNDIUixa3ywMN-9DSfczhiSQ8L9ytFZWc2Xai5UzT2wWpwDZlTaa-M,,,,,,,,,,,,,,,,1,,0,16,16,9,1,X,none,,
,,,,,,,,,,,,,,,,wro64,001,,2023-08-30_09h02.07.188,Trial go no go,2020.2.10,MacIntel,60,IwAR3VhMNDIUixa3ywMN-9DSfczhiSQ8L9ytFZWc2Xai5UzT2wWpwDZlTaa-M,,,,,,,,,,,,,,,space,1,0.3285,0,17,17,3,1,T,space,,
,,,,,,,,,,,,,,,,wro64,001,,2023-08-30_09h02.07.188,Trial go no go,2020.2.10,MacIntel,60,IwAR3VhMNDIUixa3ywMN-9DSfczhiSQ8L9ytFZWc2Xai5UzT2wWpwDZlTaa-M,,,,,,,,,,,,,,,space,1,0.4364,0,18,18,43,1,I,space,,
,,,,,,,,,,,,,,,,wro64,001,,2023-08-30_09h02.07.188,Trial go no go,2020.2.10,MacIntel,60,IwAR3VhMNDIUixa3ywMN-9DSfczhiSQ8L9ytFZWc2Xai5UzT2wWpwDZlTaa-M,,,,,,,,,,,,,,,space,1,0.3624,0,19,19,38,1,E,space,,
,,,,,,,,,,,,,,,,wro64,001,,2023-08-30_09h02.07.188,Trial go no go,2020.2.10,MacIntel,60,IwAR3VhMNDIUixa3ywMN-9DSfczhiSQ8L9ytFZWc2Xai5UzT2wWpwDZlTaa-M,,,,,,,,,,,,,,,space,1,0.2951,0,20,20,31,1,L,space,,
,,,,,,,,,,,,,,,,wro64,001,,2023-08-30_09h02.07.188,Trial go no go,2020.2.10,MacIntel,60,IwAR3VhMNDIUixa3ywMN-9DSfczhiSQ8L9ytFZWc2Xai5UzT2wWpwDZlTaa-M,,,,,,,,,,,,,,,,1,,0,21,21,34,1,X,none,,
,,,,,,,,,,,,,,,,wro64,001,,2023-08-30_09h02.07.188,Trial go no go,2020.2.10,MacIntel,60,IwAR3VhMNDIUixa3ywMN-9DSfczhiSQ8L9ytFZWc2Xai5UzT2wWpwDZlTaa-M,,,,,,,,,,,,,,,space,1,0.3096,0,22,22,2,1,R,space,,
,,,,,,,,,,,,,,,,wro64,001,,2023-08-30_09h02.07.188,Trial go no go,2020.2.10,MacIntel,60,IwAR3VhMNDIUixa3ywMN-9DSfczhiSQ8L9ytFZWc2Xai5UzT2wWpwDZlTaa-M,,,,,,,,,,,,,,,space,1,0.3011,0,23,23,40,1,R,space,,
,,,,,,,,,,,,,,,,wro64,001,,2023-08-30_09h02.07.188,Trial go no go,2020.2.10,MacIntel,60,IwAR3VhMNDIUixa3ywMN-9DSfczhiSQ8L9ytFZWc2Xai5UzT2wWpwDZlTaa-M,,,,,,,,,,,,,,,space,1,0.432,0,24,24,48,1,K,space,,
,,,,,,,,,,,,,,,,wro64,001,,2023-08-30_09h02.07.188,Trial go no go,2020.2.10,MacIntel,60,IwAR3VhMNDIUixa3ywMN-9DSfczhiSQ8L9ytFZWc2Xai5UzT2wWpwDZlTaa-M,,,,,,,,,,,,,,,space,1,0.3459,0,25,25,1,1,E,space,,
,,,,,,,,,,,,,,,,wro64,001,,2023-08-30_09h02.07.188,Trial go no go,2020.2.10,MacIntel,60,IwAR3VhMNDIUixa3ywMN-9DSfczhiSQ8L9ytFZWc2Xai5UzT2wWpwDZlTaa-M,,,,,,,,,,,,,,,space,1,0.5116,0,26,26,15,1,V,space,,
,,,,,,,,,,,,,,,,wro64,001,,2023-08-30_09h02.07.188,Trial go no go,2020.2.10,MacIntel,60,IwAR3VhMNDIUixa3ywMN-9DSfczhiSQ8L9ytFZWc2Xai5UzT2wWpwDZlTaa-M,,,,,,,,,,,,,,,,1,,0,27,27,24,1,X,none,,
,,,,,,,,,,,,,,,,wro64,001,,2023-08-30_09h02.07.188,Trial go no go,2020.2.10,MacIntel,60,IwAR3VhMNDIUixa3ywMN-9DSfczhiSQ8L9ytFZWc2Xai5UzT2wWpwDZlTaa-M,,,,,,,,,,,,,,,space,1,0.3141,0,28,28,6,1,I,space,,
,,,,,,,,,,,,,,,,wro64,001,,2023-08-30_09h02.07.188,Trial go no go,2020.2.10,MacIntel,60,IwAR3VhMNDIUixa3ywMN-9DSfczhiSQ8L9ytFZWc2Xai5UzT2wWpwDZlTaa-M,,,,,,,,,,,,,,,space,1,0.3661,0,29,29,5,1,Y,space,,
,,,,,,,,,,,,,,,,wro64,001,,2023-08-30_09h02.07.188,Trial go no go,2020.2.10,MacIntel,60,IwAR3VhMNDIUixa3ywMN-9DSfczhiSQ8L9ytFZWc2Xai5UzT2wWpwDZlTaa-M,,,,,,,,,,,,,,,space,1,0.3281,0,30,30,47,1,H,space,,
,,,,,,,,,,,,,,,,wro64,001,,2023-08-30_09h02.07.188,Trial go no go,2020.2.10,MacIntel,60,IwAR3VhMNDIUixa3ywMN-9DSfczhiSQ8L9ytFZWc2Xai5UzT2wWpwDZlTaa-M,,,,,,,,,,,,,,,space,1,0.2957,0,31,31,26,1,A,space,,
,,,,,,,,,,,,,,,,wro64,001,,2023-08-30_09h02.07.188,Trial go no go,2020.2.10,MacIntel,60,IwAR3VhMNDIUixa3ywMN-9DSfczhiSQ8L9ytFZWc2Xai5UzT2wWpwDZlTaa-M,,,,,,,,,,,,,,,space,0,0.3097,0,32,32,44,1,X,none,,
,,,,,,,,,,,,,,,,wro64,001,,2023-08-30_09h02.07.188,Trial go no go,2020.2.10,MacIntel,60,IwAR3VhMNDIUixa3ywMN-9DSfczhiSQ8L9ytFZWc2Xai5UzT2wWpwDZlTaa-M,,,,,,,,,,,,,,,space,1,0.7292,0,33,33,12,1,L,space,,
,,,,,,,,,,,,,,,,wro64,001,,2023-08-30_09h02.07.188,Trial go no go,2020.2.10,MacIntel,60,IwAR3VhMNDIUixa3ywMN-9DSfczhiSQ8L9ytFZWc2Xai5UzT2wWpwDZlTaa-M,,,,,,,,,,,,,,,space,1,0.4967,0,34,34,20,1,E,space,,
,,,,,,,,,,,,,,,,wro64,001,,2023-08-30_09h02.07.188,Trial go no go,2020.2.10,MacIntel,60,IwAR3VhMNDIUixa3ywMN-9DSfczhiSQ8L9ytFZWc2Xai5UzT2wWpwDZlTaa-M,,,,,,,,,,,,,,,space,1,0.3326,0,35,35,41,1,T,space,,
,,,,,,,,,,,,,,,,wro64,001,,2023-08-30_09h02.07.188,Trial go no go,2020.2.10,MacIntel,60,IwAR3VhMNDIUixa3ywMN-9DSfczhiSQ8L9ytFZWc2Xai5UzT2wWpwDZlTaa-M,,,,,,,,,,,,,,,space,1,0.3974,0,36,36,30,1,K,space,,
,,,,,,,,,,,,,,,,wro64,001,,2023-08-30_09h02.07.188,Trial go no go,2020.2.10,MacIntel,60,IwAR3VhMNDIUixa3ywMN-9DSfczhiSQ8L9ytFZWc2Xai5UzT2wWpwDZlTaa-M,,,,,,,,,,,,,,,space,1,0.3857,0,37,37,45,1,A,space,,
,,,,,,,,,,,,,,,,wro64,001,,2023-08-30_09h02.07.188,Trial go no go,2020.2.10,MacIntel,60,IwAR3VhMNDIUixa3ywMN-9DSfczhiSQ8L9ytFZWc2Xai5UzT2wWpwDZlTaa-M,,,,,,,,,,,,,,,space,1,0.4299,0,38,38,36,1,M,space,,
,,,,,,,,,,,,,,,,wro64,001,,2023-08-30_09h02.07.188,Trial go no go,2020.2.10,MacIntel,60,IwAR3VhMNDIUixa3ywMN-9DSfczhiSQ8L9ytFZWc2Xai5UzT2wWpwDZlTaa-M,,,,,,,,,,,,,,,space,1,0.3245,0,39,39,23,1,Y,space,,
,,,,,,,,,,,,,,,,wro64,001,,2023-08-30_09h02.07.188,Trial go no go,2020.2.10,MacIntel,60,IwAR3VhMNDIUixa3ywMN-9DSfczhiSQ8L9ytFZWc2Xai5UzT2wWpwDZlTaa-M,,,,,,,,,,,,,,,space,1,0.3445,0,40,40,18,1,W,space,,
,,,,,,,,,,,,,,,,wro64,001,,2023-08-30_09h02.07.188,Trial go no go,2020.2.10,MacIntel,60,IwAR3VhMNDIUixa3ywMN-9DSfczhiSQ8L9ytFZWc2Xai5UzT2wWpwDZlTaa-M,,,,,,,,,,,,,,,space,1,0.4318,0,41,41,37,1,W,space,,
,,,,,,,,,,,,,,,,wro64,001,,2023-08-30_09h02.07.188,Trial go no go,2020.2.10,MacIntel,60,IwAR3VhMNDIUixa3ywMN-9DSfczhiSQ8L9ytFZWc2Xai5UzT2wWpwDZlTaa-M,,,,,,,,,,,,,,,space,1,0.3432,0,42,42,17,1,M,space,,
,,,,,,,,,,,,,,,,wro64,001,,2023-08-30_09h02.07.188,Trial go no go,2020.2.10,MacIntel,60,IwAR3VhMNDIUixa3ywMN-9DSfczhiSQ8L9ytFZWc2Xai5UzT2wWpwDZlTaa-M,,,,,,,,,,,,,,,space,0,0.311,0,43,43,14,1,X,none,,
,,,,,,,,,,,,,,,,wro64,001,,2023-08-30_09h02.07.188,Trial go no go,2020.2.10,MacIntel,60,IwAR3VhMNDIUixa3ywMN-9DSfczhiSQ8L9ytFZWc2Xai5UzT2wWpwDZlTaa-M,,,,,,,,,,,,,,,space,1,0.4988,0,44,44,11,1,K,space,,
,,,,,,,,,,,,,,,,wro64,001,,2023-08-30_09h02.07.188,Trial go no go,2020.2.10,MacIntel,60,IwAR3VhMNDIUixa3ywMN-9DSfczhiSQ8L9ytFZWc2Xai5UzT2wWpwDZlTaa-M,,,,,,,,,,,,,,,space,1,0.35,0,45,45,46,1,F,space,,
,,,,,,,,,,,,,,,,wro64,001,,2023-08-30_09h02.07.188,Trial go no go,2020.2.10,MacIntel,60,IwAR3VhMNDIUixa3ywMN-9DSfczhiSQ8L9ytFZWc2Xai5UzT2wWpwDZlTaa-M,,,,,,,,,,,,,,,space,1,0.2951,0,46,46,35,1,N,space,,
,,,,,,,,,,,,,,,,wro64,001,,2023-08-30_09h02.07.188,Trial go no go,2020.2.10,MacIntel,60,IwAR3VhMNDIUixa3ywMN-9DSfczhiSQ8L9ytFZWc2Xai5UzT2wWpwDZlTaa-M,,,,,,,,,,,,,,,space,1,0.3184,0,47,47,13,1,Z,space,,
,,,,,,,,,,,,,,,,wro64,001,,2023-08-30_09h02.07.188,Trial go no go,2020.2.10,MacIntel,60,IwAR3VhMNDIUixa3ywMN-9DSfczhiSQ8L9ytFZWc2Xai5UzT2wWpwDZlTaa-M,,,,,,,,,,,,,,,space,1,0.3615,0,48,48,28,1,H,space,,
,,,,,,,,,,,,,,,,wro64,001,,2023-08-30_09h02.07.188,Trial go no go,2020.2.10,MacIntel,60,IwAR3VhMNDIUixa3ywMN-9DSfczhiSQ8L9ytFZWc2Xai5UzT2wWpwDZlTaa-M,,,,,,,,,,,,,,,,1,,0,49,49,39,1,X,none,,
,,,,,,,,,,,,,,,,wro64,001,,2023-08-30_09h02.07.188,Trial go no go,2020.2.10,MacIntel,60,IwAR3VhMNDIUixa3ywMN-9DSfczhiSQ8L9ytFZWc2Xai5UzT2wWpwDZlTaa-M,,,,,,,,,,,,,,,,,,,,,,,,,space,7.6048
