resp_Welcome.keys,resp_Welcome.rt,resp_Instr_Intro.keys,resp_Instr_Intro.rt,resp_Instr_Prac1.keys,resp_Instr_Prac1.rt,resp_trial_Prac1.keys,resp_trial_Prac1.corr,resp_trial_Prac1.rt,prac_trials.thisRepN,prac_trials.thisTrialN,prac_trials.thisN,prac_trials.thisIndex,prac_trials.ran,stimulus_prac1,corrAns_prac1,participant,session,indywidualny kod,date,expName,psychopyVersion,OS,frameRate,fbclid,resp_Instr_Test1.keys,resp_Instr_Test1.rt,resp_trial_Test1.keys,resp_trial_Test1.corr,test1trial.thisRepN,test1trial.thisTrialN,test1trial.thisN,test1trial.thisIndex,test1trial.ran,stimulus_test1,corrAns_test1,resp_trial_Test1.rt,resp_Instr_Test2.keys,resp_Instr_Test2.rt,key_resp_Test2.keys,key_resp_Test2.corr,test2trial.thisRepN,test2trial.thisTrialN,test2trial.thisN,test2trial.thisIndex,test2trial.ran,stimulus_test2,corrAns_test2,key_resp_Test2.rt,resp_theEnd.keys,resp_theEnd.rt
space,14.6413,space,11.8674,space,7.4736,space,1,0.6016,0,0,0,11,1,X,space,wro61,001,,2023-08-01_15h42.05.833,Trial go no go,2020.2.10,MacIntel,60,IwAR38JyETrN6Neis15PjlpDkoBmd2ZBwPY7KWoDzs-lYgfvJhvcg7atYrgvA,,,,,,,,,,,,,,,,,,,,,,,,,,
,,,,,,,1,,0,1,1,14,1,K,none,wro61,001,,2023-08-01_15h42.05.833,Trial go no go,2020.2.10,MacIntel,60,IwAR38JyETrN6Neis15PjlpDkoBmd2ZBwPY7KWoDzs-lYgfvJhvcg7atYrgvA,,,,,,,,,,,,,,,,,,,,,,,,,,
,,,,,,space,1,0.5282,0,2,2,1,1,X,space,wro61,001,,2023-08-01_15h42.05.833,Trial go no go,2020.2.10,MacIntel,60,IwAR38JyETrN6Neis15PjlpDkoBmd2ZBwPY7KWoDzs-lYgfvJhvcg7atYrgvA,,,,,,,,,,,,,,,,,,,,,,,,,,
,,,,,,space,1,0.3971,0,3,3,3,1,X,space,wro61,001,,2023-08-01_15h42.05.833,Trial go no go,2020.2.10,MacIntel,60,IwAR38JyETrN6Neis15PjlpDkoBmd2ZBwPY7KWoDzs-lYgfvJhvcg7atYrgvA,,,,,,,,,,,,,,,,,,,,,,,,,,
,,,,,,space,1,0.3741,0,4,4,2,1,X,space,wro61,001,,2023-08-01_15h42.05.833,Trial go no go,2020.2.10,MacIntel,60,IwAR38JyETrN6Neis15PjlpDkoBmd2ZBwPY7KWoDzs-lYgfvJhvcg7atYrgvA,,,,,,,,,,,,,,,,,,,,,,,,,,
,,,,,,space,1,0.3985,0,5,5,10,1,X,space,wro61,001,,2023-08-01_15h42.05.833,Trial go no go,2020.2.10,MacIntel,60,IwAR38JyETrN6Neis15PjlpDkoBmd2ZBwPY7KWoDzs-lYgfvJhvcg7atYrgvA,,,,,,,,,,,,,,,,,,,,,,,,,,
,,,,,,,1,,0,6,6,9,1,V,none,wro61,001,,2023-08-01_15h42.05.833,Trial go no go,2020.2.10,MacIntel,60,IwAR38JyETrN6Neis15PjlpDkoBmd2ZBwPY7KWoDzs-lYgfvJhvcg7atYrgvA,,,,,,,,,,,,,,,,,,,,,,,,,,
,,,,,,space,1,0.4278,0,7,7,7,1,X,space,wro61,001,,2023-08-01_15h42.05.833,Trial go no go,2020.2.10,MacIntel,60,IwAR38JyETrN6Neis15PjlpDkoBmd2ZBwPY7KWoDzs-lYgfvJhvcg7atYrgvA,,,,,,,,,,,,,,,,,,,,,,,,,,
,,,,,,space,1,0.4119,0,8,8,6,1,X,space,wro61,001,,2023-08-01_15h42.05.833,Trial go no go,2020.2.10,MacIntel,60,IwAR38JyETrN6Neis15PjlpDkoBmd2ZBwPY7KWoDzs-lYgfvJhvcg7atYrgvA,,,,,,,,,,,,,,,,,,,,,,,,,,
,,,,,,space,1,0.3977,0,9,9,5,1,X,space,wro61,001,,2023-08-01_15h42.05.833,Trial go no go,2020.2.10,MacIntel,60,IwAR38JyETrN6Neis15PjlpDkoBmd2ZBwPY7KWoDzs-lYgfvJhvcg7atYrgvA,,,,,,,,,,,,,,,,,,,,,,,,,,
,,,,,,space,1,0.374,0,10,10,0,1,X,space,wro61,001,,2023-08-01_15h42.05.833,Trial go no go,2020.2.10,MacIntel,60,IwAR38JyETrN6Neis15PjlpDkoBmd2ZBwPY7KWoDzs-lYgfvJhvcg7atYrgvA,,,,,,,,,,,,,,,,,,,,,,,,,,
,,,,,,,1,,0,11,11,4,1,W,none,wro61,001,,2023-08-01_15h42.05.833,Trial go no go,2020.2.10,MacIntel,60,IwAR38JyETrN6Neis15PjlpDkoBmd2ZBwPY7KWoDzs-lYgfvJhvcg7atYrgvA,,,,,,,,,,,,,,,,,,,,,,,,,,
,,,,,,space,1,0.3954,0,12,12,13,1,X,space,wro61,001,,2023-08-01_15h42.05.833,Trial go no go,2020.2.10,MacIntel,60,IwAR38JyETrN6Neis15PjlpDkoBmd2ZBwPY7KWoDzs-lYgfvJhvcg7atYrgvA,,,,,,,,,,,,,,,,,,,,,,,,,,
,,,,,,space,1,0.3701,0,13,13,8,1,X,space,wro61,001,,2023-08-01_15h42.05.833,Trial go no go,2020.2.10,MacIntel,60,IwAR38JyETrN6Neis15PjlpDkoBmd2ZBwPY7KWoDzs-lYgfvJhvcg7atYrgvA,,,,,,,,,,,,,,,,,,,,,,,,,,
,,,,,,space,1,0.3121,0,14,14,12,1,X,space,wro61,001,,2023-08-01_15h42.05.833,Trial go no go,2020.2.10,MacIntel,60,IwAR38JyETrN6Neis15PjlpDkoBmd2ZBwPY7KWoDzs-lYgfvJhvcg7atYrgvA,,,,,,,,,,,,,,,,,,,,,,,,,,
,,,,,,,,,,,,,,,,wro61,001,,2023-08-01_15h42.05.833,Trial go no go,2020.2.10,MacIntel,60,IwAR38JyETrN6Neis15PjlpDkoBmd2ZBwPY7KWoDzs-lYgfvJhvcg7atYrgvA,space,7.0977,,1,0,0,0,9,1,W,none,,,,,,,,,,,,,,,
,,,,,,,,,,,,,,,,wro61,001,,2023-08-01_15h42.05.833,Trial go no go,2020.2.10,MacIntel,60,IwAR38JyETrN6Neis15PjlpDkoBmd2ZBwPY7KWoDzs-lYgfvJhvcg7atYrgvA,,,space,1,0,1,1,43,1,X,space,0.3991,,,,,,,,,,,,,,
,,,,,,,,,,,,,,,,wro61,001,,2023-08-01_15h42.05.833,Trial go no go,2020.2.10,MacIntel,60,IwAR38JyETrN6Neis15PjlpDkoBmd2ZBwPY7KWoDzs-lYgfvJhvcg7atYrgvA,,,,1,0,2,2,44,1,F,none,,,,,,,,,,,,,,,
,,,,,,,,,,,,,,,,wro61,001,,2023-08-01_15h42.05.833,Trial go no go,2020.2.10,MacIntel,60,IwAR38JyETrN6Neis15PjlpDkoBmd2ZBwPY7KWoDzs-lYgfvJhvcg7atYrgvA,,,space,1,0,3,3,20,1,X,space,0.2693,,,,,,,,,,,,,,
,,,,,,,,,,,,,,,,wro61,001,,2023-08-01_15h42.05.833,Trial go no go,2020.2.10,MacIntel,60,IwAR38JyETrN6Neis15PjlpDkoBmd2ZBwPY7KWoDzs-lYgfvJhvcg7atYrgvA,,,space,1,0,4,4,47,1,X,space,0.4913,,,,,,,,,,,,,,
,,,,,,,,,,,,,,,,wro61,001,,2023-08-01_15h42.05.833,Trial go no go,2020.2.10,MacIntel,60,IwAR38JyETrN6Neis15PjlpDkoBmd2ZBwPY7KWoDzs-lYgfvJhvcg7atYrgvA,,,space,1,0,5,5,22,1,X,space,0.2983,,,,,,,,,,,,,,
,,,,,,,,,,,,,,,,wro61,001,,2023-08-01_15h42.05.833,Trial go no go,2020.2.10,MacIntel,60,IwAR38JyETrN6Neis15PjlpDkoBmd2ZBwPY7KWoDzs-lYgfvJhvcg7atYrgvA,,,space,1,0,6,6,37,1,X,space,0.3199,,,,,,,,,,,,,,
,,,,,,,,,,,,,,,,wro61,001,,2023-08-01_15h42.05.833,Trial go no go,2020.2.10,MacIntel,60,IwAR38JyETrN6Neis15PjlpDkoBmd2ZBwPY7KWoDzs-lYgfvJhvcg7atYrgvA,,,space,1,0,7,7,23,1,X,space,0.334,,,,,,,,,,,,,,
,,,,,,,,,,,,,,,,wro61,001,,2023-08-01_15h42.05.833,Trial go no go,2020.2.10,MacIntel,60,IwAR38JyETrN6Neis15PjlpDkoBmd2ZBwPY7KWoDzs-lYgfvJhvcg7atYrgvA,,,space,1,0,8,8,33,1,X,space,0.4405,,,,,,,,,,,,,,
,,,,,,,,,,,,,,,,wro61,001,,2023-08-01_15h42.05.833,Trial go no go,2020.2.10,MacIntel,60,IwAR38JyETrN6Neis15PjlpDkoBmd2ZBwPY7KWoDzs-lYgfvJhvcg7atYrgvA,,,space,1,0,9,9,12,1,X,space,0.2844,,,,,,,,,,,,,,
,,,,,,,,,,,,,,,,wro61,001,,2023-08-01_15h42.05.833,Trial go no go,2020.2.10,MacIntel,60,IwAR38JyETrN6Neis15PjlpDkoBmd2ZBwPY7KWoDzs-lYgfvJhvcg7atYrgvA,,,space,1,0,10,10,15,1,X,space,0.2529,,,,,,,,,,,,,,
,,,,,,,,,,,,,,,,wro61,001,,2023-08-01_15h42.05.833,Trial go no go,2020.2.10,MacIntel,60,IwAR38JyETrN6Neis15PjlpDkoBmd2ZBwPY7KWoDzs-lYgfvJhvcg7atYrgvA,,,space,1,0,11,11,2,1,X,space,0.2978,,,,,,,,,,,,,,
,,,,,,,,,,,,,,,,wro61,001,,2023-08-01_15h42.05.833,Trial go no go,2020.2.10,MacIntel,60,IwAR38JyETrN6Neis15PjlpDkoBmd2ZBwPY7KWoDzs-lYgfvJhvcg7atYrgvA,,,space,1,0,12,12,1,1,X,space,0.3449,,,,,,,,,,,,,,
,,,,,,,,,,,,,,,,wro61,001,,2023-08-01_15h42.05.833,Trial go no go,2020.2.10,MacIntel,60,IwAR38JyETrN6Neis15PjlpDkoBmd2ZBwPY7KWoDzs-lYgfvJhvcg7atYrgvA,,,space,1,0,13,13,8,1,X,space,0.2714,,,,,,,,,,,,,,
,,,,,,,,,,,,,,,,wro61,001,,2023-08-01_15h42.05.833,Trial go no go,2020.2.10,MacIntel,60,IwAR38JyETrN6Neis15PjlpDkoBmd2ZBwPY7KWoDzs-lYgfvJhvcg7atYrgvA,,,space,0,0,14,14,49,1,E,none,0.286,,,,,,,,,,,,,,
,,,,,,,,,,,,,,,,wro61,001,,2023-08-01_15h42.05.833,Trial go no go,2020.2.10,MacIntel,60,IwAR38JyETrN6Neis15PjlpDkoBmd2ZBwPY7KWoDzs-lYgfvJhvcg7atYrgvA,,,,0,0,15,15,5,1,X,space,,,,,,,,,,,,,,,
,,,,,,,,,,,,,,,,wro61,001,,2023-08-01_15h42.05.833,Trial go no go,2020.2.10,MacIntel,60,IwAR38JyETrN6Neis15PjlpDkoBmd2ZBwPY7KWoDzs-lYgfvJhvcg7atYrgvA,,,space,0,0,16,16,29,1,T,none,0.2534,,,,,,,,,,,,,,
,,,,,,,,,,,,,,,,wro61,001,,2023-08-01_15h42.05.833,Trial go no go,2020.2.10,MacIntel,60,IwAR38JyETrN6Neis15PjlpDkoBmd2ZBwPY7KWoDzs-lYgfvJhvcg7atYrgvA,,,,0,0,17,17,3,1,X,space,,,,,,,,,,,,,,,
,,,,,,,,,,,,,,,,wro61,001,,2023-08-01_15h42.05.833,Trial go no go,2020.2.10,MacIntel,60,IwAR38JyETrN6Neis15PjlpDkoBmd2ZBwPY7KWoDzs-lYgfvJhvcg7atYrgvA,,,,0,0,18,18,26,1,X,space,,,,,,,,,,,,,,,
,,,,,,,,,,,,,,,,wro61,001,,2023-08-01_15h42.05.833,Trial go no go,2020.2.10,MacIntel,60,IwAR38JyETrN6Neis15PjlpDkoBmd2ZBwPY7KWoDzs-lYgfvJhvcg7atYrgvA,,,space,1,0,19,19,0,1,X,space,0.2368,,,,,,,,,,,,,,
,,,,,,,,,,,,,,,,wro61,001,,2023-08-01_15h42.05.833,Trial go no go,2020.2.10,MacIntel,60,IwAR38JyETrN6Neis15PjlpDkoBmd2ZBwPY7KWoDzs-lYgfvJhvcg7atYrgvA,,,space,1,0,20,20,6,1,X,space,0.316,,,,,,,,,,,,,,
,,,,,,,,,,,,,,,,wro61,001,,2023-08-01_15h42.05.833,Trial go no go,2020.2.10,MacIntel,60,IwAR38JyETrN6Neis15PjlpDkoBmd2ZBwPY7KWoDzs-lYgfvJhvcg7atYrgvA,,,space,1,0,21,21,36,1,X,space,0.3086,,,,,,,,,,,,,,
,,,,,,,,,,,,,,,,wro61,001,,2023-08-01_15h42.05.833,Trial go no go,2020.2.10,MacIntel,60,IwAR38JyETrN6Neis15PjlpDkoBmd2ZBwPY7KWoDzs-lYgfvJhvcg7atYrgvA,,,,1,0,22,22,34,1,N,none,,,,,,,,,,,,,,,
,,,,,,,,,,,,,,,,wro61,001,,2023-08-01_15h42.05.833,Trial go no go,2020.2.10,MacIntel,60,IwAR38JyETrN6Neis15PjlpDkoBmd2ZBwPY7KWoDzs-lYgfvJhvcg7atYrgvA,,,,1,0,23,23,4,1,V,none,,,,,,,,,,,,,,,
,,,,,,,,,,,,,,,,wro61,001,,2023-08-01_15h42.05.833,Trial go no go,2020.2.10,MacIntel,60,IwAR38JyETrN6Neis15PjlpDkoBmd2ZBwPY7KWoDzs-lYgfvJhvcg7atYrgvA,,,space,1,0,24,24,45,1,X,space,0.3951,,,,,,,,,,,,,,
,,,,,,,,,,,,,,,,wro61,001,,2023-08-01_15h42.05.833,Trial go no go,2020.2.10,MacIntel,60,IwAR38JyETrN6Neis15PjlpDkoBmd2ZBwPY7KWoDzs-lYgfvJhvcg7atYrgvA,,,,1,0,25,25,14,1,Y,none,,,,,,,,,,,,,,,
,,,,,,,,,,,,,,,,wro61,001,,2023-08-01_15h42.05.833,Trial go no go,2020.2.10,MacIntel,60,IwAR38JyETrN6Neis15PjlpDkoBmd2ZBwPY7KWoDzs-lYgfvJhvcg7atYrgvA,,,space,1,0,26,26,7,1,X,space,0.3076,,,,,,,,,,,,,,
,,,,,,,,,,,,,,,,wro61,001,,2023-08-01_15h42.05.833,Trial go no go,2020.2.10,MacIntel,60,IwAR38JyETrN6Neis15PjlpDkoBmd2ZBwPY7KWoDzs-lYgfvJhvcg7atYrgvA,,,space,1,0,27,27,16,1,X,space,0.3673,,,,,,,,,,,,,,
,,,,,,,,,,,,,,,,wro61,001,,2023-08-01_15h42.05.833,Trial go no go,2020.2.10,MacIntel,60,IwAR38JyETrN6Neis15PjlpDkoBmd2ZBwPY7KWoDzs-lYgfvJhvcg7atYrgvA,,,space,1,0,28,28,18,1,X,space,0.3231,,,,,,,,,,,,,,
,,,,,,,,,,,,,,,,wro61,001,,2023-08-01_15h42.05.833,Trial go no go,2020.2.10,MacIntel,60,IwAR38JyETrN6Neis15PjlpDkoBmd2ZBwPY7KWoDzs-lYgfvJhvcg7atYrgvA,,,space,1,0,29,29,17,1,X,space,0.4475,,,,,,,,,,,,,,
,,,,,,,,,,,,,,,,wro61,001,,2023-08-01_15h42.05.833,Trial go no go,2020.2.10,MacIntel,60,IwAR38JyETrN6Neis15PjlpDkoBmd2ZBwPY7KWoDzs-lYgfvJhvcg7atYrgvA,,,,1,0,30,30,39,1,M,none,,,,,,,,,,,,,,,
,,,,,,,,,,,,,,,,wro61,001,,2023-08-01_15h42.05.833,Trial go no go,2020.2.10,MacIntel,60,IwAR38JyETrN6Neis15PjlpDkoBmd2ZBwPY7KWoDzs-lYgfvJhvcg7atYrgvA,,,space,1,0,31,31,13,1,X,space,0.2917,,,,,,,,,,,,,,
,,,,,,,,,,,,,,,,wro61,001,,2023-08-01_15h42.05.833,Trial go no go,2020.2.10,MacIntel,60,IwAR38JyETrN6Neis15PjlpDkoBmd2ZBwPY7KWoDzs-lYgfvJhvcg7atYrgvA,,,space,1,0,32,32,46,1,X,space,0.3485,,,,,,,,,,,,,,
,,,,,,,,,,,,,,,,wro61,001,,2023-08-01_15h42.05.833,Trial go no go,2020.2.10,MacIntel,60,IwAR38JyETrN6Neis15PjlpDkoBmd2ZBwPY7KWoDzs-lYgfvJhvcg7atYrgvA,,,space,1,0,33,33,11,1,X,space,0.3324,,,,,,,,,,,,,,
,,,,,,,,,,,,,,,,wro61,001,,2023-08-01_15h42.05.833,Trial go no go,2020.2.10,MacIntel,60,IwAR38JyETrN6Neis15PjlpDkoBmd2ZBwPY7KWoDzs-lYgfvJhvcg7atYrgvA,,,space,1,0,34,34,38,1,X,space,0.3037,,,,,,,,,,,,,,
,,,,,,,,,,,,,,,,wro61,001,,2023-08-01_15h42.05.833,Trial go no go,2020.2.10,MacIntel,60,IwAR38JyETrN6Neis15PjlpDkoBmd2ZBwPY7KWoDzs-lYgfvJhvcg7atYrgvA,,,space,1,0,35,35,41,1,X,space,0.635,,,,,,,,,,,,,,
,,,,,,,,,,,,,,,,wro61,001,,2023-08-01_15h42.05.833,Trial go no go,2020.2.10,MacIntel,60,IwAR38JyETrN6Neis15PjlpDkoBmd2ZBwPY7KWoDzs-lYgfvJhvcg7atYrgvA,,,space,1,0,36,36,40,1,X,space,0.3471,,,,,,,,,,,,,,
,,,,,,,,,,,,,,,,wro61,001,,2023-08-01_15h42.05.833,Trial go no go,2020.2.10,MacIntel,60,IwAR38JyETrN6Neis15PjlpDkoBmd2ZBwPY7KWoDzs-lYgfvJhvcg7atYrgvA,,,space,1,0,37,37,30,1,X,space,0.3301,,,,,,,,,,,,,,
,,,,,,,,,,,,,,,,wro61,001,,2023-08-01_15h42.05.833,Trial go no go,2020.2.10,MacIntel,60,IwAR38JyETrN6Neis15PjlpDkoBmd2ZBwPY7KWoDzs-lYgfvJhvcg7atYrgvA,,,space,1,0,38,38,35,1,X,space,0.3408,,,,,,,,,,,,,,
,,,,,,,,,,,,,,,,wro61,001,,2023-08-01_15h42.05.833,Trial go no go,2020.2.10,MacIntel,60,IwAR38JyETrN6Neis15PjlpDkoBmd2ZBwPY7KWoDzs-lYgfvJhvcg7atYrgvA,,,space,1,0,39,39,48,1,X,space,0.339,,,,,,,,,,,,,,
,,,,,,,,,,,,,,,,wro61,001,,2023-08-01_15h42.05.833,Trial go no go,2020.2.10,MacIntel,60,IwAR38JyETrN6Neis15PjlpDkoBmd2ZBwPY7KWoDzs-lYgfvJhvcg7atYrgvA,,,space,1,0,40,40,42,1,X,space,0.2803,,,,,,,,,,,,,,
,,,,,,,,,,,,,,,,wro61,001,,2023-08-01_15h42.05.833,Trial go no go,2020.2.10,MacIntel,60,IwAR38JyETrN6Neis15PjlpDkoBmd2ZBwPY7KWoDzs-lYgfvJhvcg7atYrgvA,,,space,1,0,41,41,31,1,X,space,0.3988,,,,,,,,,,,,,,
,,,,,,,,,,,,,,,,wro61,001,,2023-08-01_15h42.05.833,Trial go no go,2020.2.10,MacIntel,60,IwAR38JyETrN6Neis15PjlpDkoBmd2ZBwPY7KWoDzs-lYgfvJhvcg7atYrgvA,,,space,1,0,42,42,32,1,X,space,0.2376,,,,,,,,,,,,,,
,,,,,,,,,,,,,,,,wro61,001,,2023-08-01_15h42.05.833,Trial go no go,2020.2.10,MacIntel,60,IwAR38JyETrN6Neis15PjlpDkoBmd2ZBwPY7KWoDzs-lYgfvJhvcg7atYrgvA,,,space,0,0,43,43,19,1,K,none,0.3076,,,,,,,,,,,,,,
,,,,,,,,,,,,,,,,wro61,001,,2023-08-01_15h42.05.833,Trial go no go,2020.2.10,MacIntel,60,IwAR38JyETrN6Neis15PjlpDkoBmd2ZBwPY7KWoDzs-lYgfvJhvcg7atYrgvA,,,,0,0,44,44,27,1,X,space,,,,,,,,,,,,,,,
,,,,,,,,,,,,,,,,wro61,001,,2023-08-01_15h42.05.833,Trial go no go,2020.2.10,MacIntel,60,IwAR38JyETrN6Neis15PjlpDkoBmd2ZBwPY7KWoDzs-lYgfvJhvcg7atYrgvA,,,space,1,0,45,45,28,1,X,space,0.2661,,,,,,,,,,,,,,
,,,,,,,,,,,,,,,,wro61,001,,2023-08-01_15h42.05.833,Trial go no go,2020.2.10,MacIntel,60,IwAR38JyETrN6Neis15PjlpDkoBmd2ZBwPY7KWoDzs-lYgfvJhvcg7atYrgvA,,,space,1,0,46,46,10,1,X,space,0.2383,,,,,,,,,,,,,,
,,,,,,,,,,,,,,,,wro61,001,,2023-08-01_15h42.05.833,Trial go no go,2020.2.10,MacIntel,60,IwAR38JyETrN6Neis15PjlpDkoBmd2ZBwPY7KWoDzs-lYgfvJhvcg7atYrgvA,,,,1,0,47,47,24,1,H,none,,,,,,,,,,,,,,,
,,,,,,,,,,,,,,,,wro61,001,,2023-08-01_15h42.05.833,Trial go no go,2020.2.10,MacIntel,60,IwAR38JyETrN6Neis15PjlpDkoBmd2ZBwPY7KWoDzs-lYgfvJhvcg7atYrgvA,,,space,1,0,48,48,25,1,X,space,0.2866,,,,,,,,,,,,,,
,,,,,,,,,,,,,,,,wro61,001,,2023-08-01_15h42.05.833,Trial go no go,2020.2.10,MacIntel,60,IwAR38JyETrN6Neis15PjlpDkoBmd2ZBwPY7KWoDzs-lYgfvJhvcg7atYrgvA,,,space,1,0,49,49,21,1,X,space,0.3647,,,,,,,,,,,,,,
,,,,,,,,,,,,,,,,wro61,001,,2023-08-01_15h42.05.833,Trial go no go,2020.2.10,MacIntel,60,IwAR38JyETrN6Neis15PjlpDkoBmd2ZBwPY7KWoDzs-lYgfvJhvcg7atYrgvA,,,,,,,,,,,,,z,8.3993,,0,0,0,0,17,1,M,space,,,
,,,,,,,,,,,,,,,,wro61,001,,2023-08-01_15h42.05.833,Trial go no go,2020.2.10,MacIntel,60,IwAR38JyETrN6Neis15PjlpDkoBmd2ZBwPY7KWoDzs-lYgfvJhvcg7atYrgvA,,,,,,,,,,,,,,,space,1,0,1,1,22,1,T,space,0.3167,,
,,,,,,,,,,,,,,,,wro61,001,,2023-08-01_15h42.05.833,Trial go no go,2020.2.10,MacIntel,60,IwAR38JyETrN6Neis15PjlpDkoBmd2ZBwPY7KWoDzs-lYgfvJhvcg7atYrgvA,,,,,,,,,,,,,,,space,1,0,2,2,28,1,H,space,0.2971,,
,,,,,,,,,,,,,,,,wro61,001,,2023-08-01_15h42.05.833,Trial go no go,2020.2.10,MacIntel,60,IwAR38JyETrN6Neis15PjlpDkoBmd2ZBwPY7KWoDzs-lYgfvJhvcg7atYrgvA,,,,,,,,,,,,,,,space,1,0,3,3,30,1,K,space,0.2333,,
,,,,,,,,,,,,,,,,wro61,001,,2023-08-01_15h42.05.833,Trial go no go,2020.2.10,MacIntel,60,IwAR38JyETrN6Neis15PjlpDkoBmd2ZBwPY7KWoDzs-lYgfvJhvcg7atYrgvA,,,,,,,,,,,,,,,space,1,0,4,4,18,1,W,space,0.2615,,
,,,,,,,,,,,,,,,,wro61,001,,2023-08-01_15h42.05.833,Trial go no go,2020.2.10,MacIntel,60,IwAR38JyETrN6Neis15PjlpDkoBmd2ZBwPY7KWoDzs-lYgfvJhvcg7atYrgvA,,,,,,,,,,,,,,,space,1,0,5,5,42,1,Y,space,0.2659,,
,,,,,,,,,,,,,,,,wro61,001,,2023-08-01_15h42.05.833,Trial go no go,2020.2.10,MacIntel,60,IwAR38JyETrN6Neis15PjlpDkoBmd2ZBwPY7KWoDzs-lYgfvJhvcg7atYrgvA,,,,,,,,,,,,,,,space,0,0,6,6,44,1,X,none,0.2999,,
,,,,,,,,,,,,,,,,wro61,001,,2023-08-01_15h42.05.833,Trial go no go,2020.2.10,MacIntel,60,IwAR38JyETrN6Neis15PjlpDkoBmd2ZBwPY7KWoDzs-lYgfvJhvcg7atYrgvA,,,,,,,,,,,,,,,space,1,0,7,7,48,1,K,space,0.2328,,
,,,,,,,,,,,,,,,,wro61,001,,2023-08-01_15h42.05.833,Trial go no go,2020.2.10,MacIntel,60,IwAR38JyETrN6Neis15PjlpDkoBmd2ZBwPY7KWoDzs-lYgfvJhvcg7atYrgvA,,,,,,,,,,,,,,,space,1,0,8,8,25,1,I,space,0.3967,,
,,,,,,,,,,,,,,,,wro61,001,,2023-08-01_15h42.05.833,Trial go no go,2020.2.10,MacIntel,60,IwAR38JyETrN6Neis15PjlpDkoBmd2ZBwPY7KWoDzs-lYgfvJhvcg7atYrgvA,,,,,,,,,,,,,,,space,1,0,9,9,40,1,R,space,0.3226,,
,,,,,,,,,,,,,,,,wro61,001,,2023-08-01_15h42.05.833,Trial go no go,2020.2.10,MacIntel,60,IwAR38JyETrN6Neis15PjlpDkoBmd2ZBwPY7KWoDzs-lYgfvJhvcg7atYrgvA,,,,,,,,,,,,,,,space,1,0,10,10,3,1,T,space,0.3062,,
,,,,,,,,,,,,,,,,wro61,001,,2023-08-01_15h42.05.833,Trial go no go,2020.2.10,MacIntel,60,IwAR38JyETrN6Neis15PjlpDkoBmd2ZBwPY7KWoDzs-lYgfvJhvcg7atYrgvA,,,,,,,,,,,,,,,space,1,0,11,11,43,1,I,space,0.3185,,
,,,,,,,,,,,,,,,,wro61,001,,2023-08-01_15h42.05.833,Trial go no go,2020.2.10,MacIntel,60,IwAR38JyETrN6Neis15PjlpDkoBmd2ZBwPY7KWoDzs-lYgfvJhvcg7atYrgvA,,,,,,,,,,,,,,,space,1,0,12,12,16,1,N,space,0.3123,,
,,,,,,,,,,,,,,,,wro61,001,,2023-08-01_15h42.05.833,Trial go no go,2020.2.10,MacIntel,60,IwAR38JyETrN6Neis15PjlpDkoBmd2ZBwPY7KWoDzs-lYgfvJhvcg7atYrgvA,,,,,,,,,,,,,,,space,1,0,13,13,33,1,V,space,0.3424,,
,,,,,,,,,,,,,,,,wro61,001,,2023-08-01_15h42.05.833,Trial go no go,2020.2.10,MacIntel,60,IwAR38JyETrN6Neis15PjlpDkoBmd2ZBwPY7KWoDzs-lYgfvJhvcg7atYrgvA,,,,,,,,,,,,,,,space,1,0,14,14,6,1,I,space,0.349,,
,,,,,,,,,,,,,,,,wro61,001,,2023-08-01_15h42.05.833,Trial go no go,2020.2.10,MacIntel,60,IwAR38JyETrN6Neis15PjlpDkoBmd2ZBwPY7KWoDzs-lYgfvJhvcg7atYrgvA,,,,,,,,,,,,,,,space,1,0,15,15,45,1,A,space,0.3869,,
,,,,,,,,,,,,,,,,wro61,001,,2023-08-01_15h42.05.833,Trial go no go,2020.2.10,MacIntel,60,IwAR38JyETrN6Neis15PjlpDkoBmd2ZBwPY7KWoDzs-lYgfvJhvcg7atYrgvA,,,,,,,,,,,,,,,space,1,0,16,16,20,1,E,space,0.3003,,
,,,,,,,,,,,,,,,,wro61,001,,2023-08-01_15h42.05.833,Trial go no go,2020.2.10,MacIntel,60,IwAR38JyETrN6Neis15PjlpDkoBmd2ZBwPY7KWoDzs-lYgfvJhvcg7atYrgvA,,,,,,,,,,,,,,,space,1,0,17,17,7,1,A,space,0.2749,,
,,,,,,,,,,,,,,,,wro61,001,,2023-08-01_15h42.05.833,Trial go no go,2020.2.10,MacIntel,60,IwAR38JyETrN6Neis15PjlpDkoBmd2ZBwPY7KWoDzs-lYgfvJhvcg7atYrgvA,,,,,,,,,,,,,,,space,1,0,18,18,36,1,M,space,0.2785,,
,,,,,,,,,,,,,,,,wro61,001,,2023-08-01_15h42.05.833,Trial go no go,2020.2.10,MacIntel,60,IwAR38JyETrN6Neis15PjlpDkoBmd2ZBwPY7KWoDzs-lYgfvJhvcg7atYrgvA,,,,,,,,,,,,,,,space,1,0,19,19,15,1,V,space,0.2623,,
,,,,,,,,,,,,,,,,wro61,001,,2023-08-01_15h42.05.833,Trial go no go,2020.2.10,MacIntel,60,IwAR38JyETrN6Neis15PjlpDkoBmd2ZBwPY7KWoDzs-lYgfvJhvcg7atYrgvA,,,,,,,,,,,,,,,space,1,0,20,20,21,1,R,space,0.297,,
,,,,,,,,,,,,,,,,wro61,001,,2023-08-01_15h42.05.833,Trial go no go,2020.2.10,MacIntel,60,IwAR38JyETrN6Neis15PjlpDkoBmd2ZBwPY7KWoDzs-lYgfvJhvcg7atYrgvA,,,,,,,,,,,,,,,space,1,0,21,21,8,1,F,space,0.2774,,
,,,,,,,,,,,,,,,,wro61,001,,2023-08-01_15h42.05.833,Trial go no go,2020.2.10,MacIntel,60,IwAR38JyETrN6Neis15PjlpDkoBmd2ZBwPY7KWoDzs-lYgfvJhvcg7atYrgvA,,,,,,,,,,,,,,,space,1,0,22,22,47,1,H,space,0.229,,
,,,,,,,,,,,,,,,,wro61,001,,2023-08-01_15h42.05.833,Trial go no go,2020.2.10,MacIntel,60,IwAR38JyETrN6Neis15PjlpDkoBmd2ZBwPY7KWoDzs-lYgfvJhvcg7atYrgvA,,,,,,,,,,,,,,,space,0,0,23,23,49,1,X,none,0.3006,,
,,,,,,,,,,,,,,,,wro61,001,,2023-08-01_15h42.05.833,Trial go no go,2020.2.10,MacIntel,60,IwAR38JyETrN6Neis15PjlpDkoBmd2ZBwPY7KWoDzs-lYgfvJhvcg7atYrgvA,,,,,,,,,,,,,,,space,1,0,24,24,26,1,A,space,0.0783,,
,,,,,,,,,,,,,,,,wro61,001,,2023-08-01_15h42.05.833,Trial go no go,2020.2.10,MacIntel,60,IwAR38JyETrN6Neis15PjlpDkoBmd2ZBwPY7KWoDzs-lYgfvJhvcg7atYrgvA,,,,,,,,,,,,,,,space,0,0,25,25,39,1,X,none,0.2667,,
,,,,,,,,,,,,,,,,wro61,001,,2023-08-01_15h42.05.833,Trial go no go,2020.2.10,MacIntel,60,IwAR38JyETrN6Neis15PjlpDkoBmd2ZBwPY7KWoDzs-lYgfvJhvcg7atYrgvA,,,,,,,,,,,,,,,space,1,0,26,26,41,1,T,space,0.2967,,
,,,,,,,,,,,,,,,,wro61,001,,2023-08-01_15h42.05.833,Trial go no go,2020.2.10,MacIntel,60,IwAR38JyETrN6Neis15PjlpDkoBmd2ZBwPY7KWoDzs-lYgfvJhvcg7atYrgvA,,,,,,,,,,,,,,,space,0,0,27,27,34,1,X,none,0.2636,,
,,,,,,,,,,,,,,,,wro61,001,,2023-08-01_15h42.05.833,Trial go no go,2020.2.10,MacIntel,60,IwAR38JyETrN6Neis15PjlpDkoBmd2ZBwPY7KWoDzs-lYgfvJhvcg7atYrgvA,,,,,,,,,,,,,,,space,1,0,28,28,5,1,Y,space,0.2622,,
,,,,,,,,,,,,,,,,wro61,001,,2023-08-01_15h42.05.833,Trial go no go,2020.2.10,MacIntel,60,IwAR38JyETrN6Neis15PjlpDkoBmd2ZBwPY7KWoDzs-lYgfvJhvcg7atYrgvA,,,,,,,,,,,,,,,space,0,0,29,29,29,1,X,none,0.2216,,
,,,,,,,,,,,,,,,,wro61,001,,2023-08-01_15h42.05.833,Trial go no go,2020.2.10,MacIntel,60,IwAR38JyETrN6Neis15PjlpDkoBmd2ZBwPY7KWoDzs-lYgfvJhvcg7atYrgvA,,,,,,,,,,,,,,,space,1,0,30,30,13,1,Z,space,0.3363,,
,,,,,,,,,,,,,,,,wro61,001,,2023-08-01_15h42.05.833,Trial go no go,2020.2.10,MacIntel,60,IwAR38JyETrN6Neis15PjlpDkoBmd2ZBwPY7KWoDzs-lYgfvJhvcg7atYrgvA,,,,,,,,,,,,,,,space,1,0,31,31,31,1,L,space,0.3697,,
,,,,,,,,,,,,,,,,wro61,001,,2023-08-01_15h42.05.833,Trial go no go,2020.2.10,MacIntel,60,IwAR38JyETrN6Neis15PjlpDkoBmd2ZBwPY7KWoDzs-lYgfvJhvcg7atYrgvA,,,,,,,,,,,,,,,space,1,0,32,32,10,1,H,space,0.3361,,
,,,,,,,,,,,,,,,,wro61,001,,2023-08-01_15h42.05.833,Trial go no go,2020.2.10,MacIntel,60,IwAR38JyETrN6Neis15PjlpDkoBmd2ZBwPY7KWoDzs-lYgfvJhvcg7atYrgvA,,,,,,,,,,,,,,,space,1,0,33,33,11,1,K,space,0.3165,,
,,,,,,,,,,,,,,,,wro61,001,,2023-08-01_15h42.05.833,Trial go no go,2020.2.10,MacIntel,60,IwAR38JyETrN6Neis15PjlpDkoBmd2ZBwPY7KWoDzs-lYgfvJhvcg7atYrgvA,,,,,,,,,,,,,,,space,1,0,34,34,12,1,L,space,0.356,,
,,,,,,,,,,,,,,,,wro61,001,,2023-08-01_15h42.05.833,Trial go no go,2020.2.10,MacIntel,60,IwAR38JyETrN6Neis15PjlpDkoBmd2ZBwPY7KWoDzs-lYgfvJhvcg7atYrgvA,,,,,,,,,,,,,,,space,1,0,35,35,1,1,E,space,0.3939,,
,,,,,,,,,,,,,,,,wro61,001,,2023-08-01_15h42.05.833,Trial go no go,2020.2.10,MacIntel,60,IwAR38JyETrN6Neis15PjlpDkoBmd2ZBwPY7KWoDzs-lYgfvJhvcg7atYrgvA,,,,,,,,,,,,,,,space,1,0,36,36,32,1,Z,space,0.3315,,
,,,,,,,,,,,,,,,,wro61,001,,2023-08-01_15h42.05.833,Trial go no go,2020.2.10,MacIntel,60,IwAR38JyETrN6Neis15PjlpDkoBmd2ZBwPY7KWoDzs-lYgfvJhvcg7atYrgvA,,,,,,,,,,,,,,,space,1,0,37,37,0,1,W,space,0.3585,,
,,,,,,,,,,,,,,,,wro61,001,,2023-08-01_15h42.05.833,Trial go no go,2020.2.10,MacIntel,60,IwAR38JyETrN6Neis15PjlpDkoBmd2ZBwPY7KWoDzs-lYgfvJhvcg7atYrgvA,,,,,,,,,,,,,,,space,1,0,38,38,37,1,W,space,0.325,,
,,,,,,,,,,,,,,,,wro61,001,,2023-08-01_15h42.05.833,Trial go no go,2020.2.10,MacIntel,60,IwAR38JyETrN6Neis15PjlpDkoBmd2ZBwPY7KWoDzs-lYgfvJhvcg7atYrgvA,,,,,,,,,,,,,,,space,1,0,39,39,46,1,F,space,0.3289,,
,,,,,,,,,,,,,,,,wro61,001,,2023-08-01_15h42.05.833,Trial go no go,2020.2.10,MacIntel,60,IwAR38JyETrN6Neis15PjlpDkoBmd2ZBwPY7KWoDzs-lYgfvJhvcg7atYrgvA,,,,,,,,,,,,,,,space,1,0,40,40,23,1,Y,space,0.3484,,
,,,,,,,,,,,,,,,,wro61,001,,2023-08-01_15h42.05.833,Trial go no go,2020.2.10,MacIntel,60,IwAR38JyETrN6Neis15PjlpDkoBmd2ZBwPY7KWoDzs-lYgfvJhvcg7atYrgvA,,,,,,,,,,,,,,,space,0,0,41,41,14,1,X,none,0.328,,
,,,,,,,,,,,,,,,,wro61,001,,2023-08-01_15h42.05.833,Trial go no go,2020.2.10,MacIntel,60,IwAR38JyETrN6Neis15PjlpDkoBmd2ZBwPY7KWoDzs-lYgfvJhvcg7atYrgvA,,,,,,,,,,,,,,,space,0,0,42,42,9,1,X,none,0.0662,,
,,,,,,,,,,,,,,,,wro61,001,,2023-08-01_15h42.05.833,Trial go no go,2020.2.10,MacIntel,60,IwAR38JyETrN6Neis15PjlpDkoBmd2ZBwPY7KWoDzs-lYgfvJhvcg7atYrgvA,,,,,,,,,,,,,,,space,1,0,43,43,27,1,F,space,0.4394,,
,,,,,,,,,,,,,,,,wro61,001,,2023-08-01_15h42.05.833,Trial go no go,2020.2.10,MacIntel,60,IwAR38JyETrN6Neis15PjlpDkoBmd2ZBwPY7KWoDzs-lYgfvJhvcg7atYrgvA,,,,,,,,,,,,,,,space,0,0,44,44,4,1,X,none,0.3016,,
,,,,,,,,,,,,,,,,wro61,001,,2023-08-01_15h42.05.833,Trial go no go,2020.2.10,MacIntel,60,IwAR38JyETrN6Neis15PjlpDkoBmd2ZBwPY7KWoDzs-lYgfvJhvcg7atYrgvA,,,,,,,,,,,,,,,space,1,0,45,45,35,1,N,space,0.3212,,
,,,,,,,,,,,,,,,,wro61,001,,2023-08-01_15h42.05.833,Trial go no go,2020.2.10,MacIntel,60,IwAR38JyETrN6Neis15PjlpDkoBmd2ZBwPY7KWoDzs-lYgfvJhvcg7atYrgvA,,,,,,,,,,,,,,,space,0,0,46,46,24,1,X,none,0.3297,,
,,,,,,,,,,,,,,,,wro61,001,,2023-08-01_15h42.05.833,Trial go no go,2020.2.10,MacIntel,60,IwAR38JyETrN6Neis15PjlpDkoBmd2ZBwPY7KWoDzs-lYgfvJhvcg7atYrgvA,,,,,,,,,,,,,,,space,1,0,47,47,38,1,E,space,0.3561,,
,,,,,,,,,,,,,,,,wro61,001,,2023-08-01_15h42.05.833,Trial go no go,2020.2.10,MacIntel,60,IwAR38JyETrN6Neis15PjlpDkoBmd2ZBwPY7KWoDzs-lYgfvJhvcg7atYrgvA,,,,,,,,,,,,,,,,1,0,48,48,19,1,X,none,,,
,,,,,,,,,,,,,,,,wro61,001,,2023-08-01_15h42.05.833,Trial go no go,2020.2.10,MacIntel,60,IwAR38JyETrN6Neis15PjlpDkoBmd2ZBwPY7KWoDzs-lYgfvJhvcg7atYrgvA,,,,,,,,,,,,,,,space,1,0,49,49,2,1,R,space,0.3594,,
,,,,,,,,,,,,,,,,wro61,001,,2023-08-01_15h42.05.833,Trial go no go,2020.2.10,MacIntel,60,IwAR38JyETrN6Neis15PjlpDkoBmd2ZBwPY7KWoDzs-lYgfvJhvcg7atYrgvA,,,,,,,,,,,,,,,,,,,,,,,,,space,22.7576
