resp_Welcome.keys,resp_Welcome.rt,resp_Instr_Intro.keys,resp_Instr_Intro.rt,resp_Instr_Prac1.keys,resp_Instr_Prac1.rt,resp_trial_Prac1.keys,resp_trial_Prac1.corr,resp_trial_Prac1.rt,prac_trials.thisRepN,prac_trials.thisTrialN,prac_trials.thisN,prac_trials.thisIndex,prac_trials.ran,stimulus_prac1,corrAns_prac1,participant,session,indywidualny kod,date,expName,psychopyVersion,OS,frameRate,resp_Instr_Test1.keys,resp_Instr_Test1.rt,resp_trial_Test1.keys,resp_trial_Test1.corr,test1trial.thisRepN,test1trial.thisTrialN,test1trial.thisN,test1trial.thisIndex,test1trial.ran,stimulus_test1,corrAns_test1,resp_trial_Test1.rt,resp_Instr_Test2.keys,resp_Instr_Test2.rt,key_resp_Test2.keys,key_resp_Test2.corr,test2trial.thisRepN,test2trial.thisTrialN,test2trial.thisN,test2trial.thisIndex,test2trial.ran,stimulus_test2,corrAns_test2,key_resp_Test2.rt,resp_theEnd.keys,resp_theEnd.rt
space,9.2248,space,17.1996,space,9.8027,space,1,0.7642,0,0,0,1,1,X,space,WRO72,001,WRO72,2023-11-15_12h29.47.189,Trial go no go,2020.2.10,Win32,60,,,,,,,,,,,,,,,,,,,,,,,,,,
,,,,,,,1,,0,1,1,4,1,W,none,WRO72,001,WRO72,2023-11-15_12h29.47.189,Trial go no go,2020.2.10,Win32,60,,,,,,,,,,,,,,,,,,,,,,,,,,
,,,,,,space,1,0.5357,0,2,2,7,1,X,space,WRO72,001,WRO72,2023-11-15_12h29.47.189,Trial go no go,2020.2.10,Win32,60,,,,,,,,,,,,,,,,,,,,,,,,,,
,,,,,,space,1,0.4526,0,3,3,12,1,X,space,WRO72,001,WRO72,2023-11-15_12h29.47.189,Trial go no go,2020.2.10,Win32,60,,,,,,,,,,,,,,,,,,,,,,,,,,
,,,,,,,1,,0,4,4,9,1,V,none,WRO72,001,WRO72,2023-11-15_12h29.47.189,Trial go no go,2020.2.10,Win32,60,,,,,,,,,,,,,,,,,,,,,,,,,,
,,,,,,space,1,0.4328,0,5,5,10,1,X,space,WRO72,001,WRO72,2023-11-15_12h29.47.189,Trial go no go,2020.2.10,Win32,60,,,,,,,,,,,,,,,,,,,,,,,,,,
,,,,,,space,1,0.5167,0,6,6,11,1,X,space,WRO72,001,WRO72,2023-11-15_12h29.47.189,Trial go no go,2020.2.10,Win32,60,,,,,,,,,,,,,,,,,,,,,,,,,,
,,,,,,space,1,0.4931,0,7,7,3,1,X,space,WRO72,001,WRO72,2023-11-15_12h29.47.189,Trial go no go,2020.2.10,Win32,60,,,,,,,,,,,,,,,,,,,,,,,,,,
,,,,,,space,1,0.4488,0,8,8,13,1,X,space,WRO72,001,WRO72,2023-11-15_12h29.47.189,Trial go no go,2020.2.10,Win32,60,,,,,,,,,,,,,,,,,,,,,,,,,,
,,,,,,,1,,0,9,9,14,1,K,none,WRO72,001,WRO72,2023-11-15_12h29.47.189,Trial go no go,2020.2.10,Win32,60,,,,,,,,,,,,,,,,,,,,,,,,,,
,,,,,,space,1,0.4003,0,10,10,6,1,X,space,WRO72,001,WRO72,2023-11-15_12h29.47.189,Trial go no go,2020.2.10,Win32,60,,,,,,,,,,,,,,,,,,,,,,,,,,
,,,,,,space,1,0.5118,0,11,11,2,1,X,space,WRO72,001,WRO72,2023-11-15_12h29.47.189,Trial go no go,2020.2.10,Win32,60,,,,,,,,,,,,,,,,,,,,,,,,,,
,,,,,,space,1,0.4393,0,12,12,8,1,X,space,WRO72,001,WRO72,2023-11-15_12h29.47.189,Trial go no go,2020.2.10,Win32,60,,,,,,,,,,,,,,,,,,,,,,,,,,
,,,,,,space,1,0.4769,0,13,13,5,1,X,space,WRO72,001,WRO72,2023-11-15_12h29.47.189,Trial go no go,2020.2.10,Win32,60,,,,,,,,,,,,,,,,,,,,,,,,,,
,,,,,,space,1,0.4267,0,14,14,0,1,X,space,WRO72,001,WRO72,2023-11-15_12h29.47.189,Trial go no go,2020.2.10,Win32,60,,,,,,,,,,,,,,,,,,,,,,,,,,
,,,,,,,,,,,,,,,,WRO72,001,WRO72,2023-11-15_12h29.47.189,Trial go no go,2020.2.10,Win32,60,space,12.3554,,1,0,0,0,9,1,W,none,,,,,,,,,,,,,,,
,,,,,,,,,,,,,,,,WRO72,001,WRO72,2023-11-15_12h29.47.189,Trial go no go,2020.2.10,Win32,60,,,space,1,0,1,1,33,1,X,space,0.3022,,,,,,,,,,,,,,
,,,,,,,,,,,,,,,,WRO72,001,WRO72,2023-11-15_12h29.47.189,Trial go no go,2020.2.10,Win32,60,,,space,1,0,2,2,1,1,X,space,0.3371,,,,,,,,,,,,,,
,,,,,,,,,,,,,,,,WRO72,001,WRO72,2023-11-15_12h29.47.189,Trial go no go,2020.2.10,Win32,60,,,space,1,0,3,3,5,1,X,space,0.3145,,,,,,,,,,,,,,
,,,,,,,,,,,,,,,,WRO72,001,WRO72,2023-11-15_12h29.47.189,Trial go no go,2020.2.10,Win32,60,,,space,1,0,4,4,12,1,X,space,0.3055,,,,,,,,,,,,,,
,,,,,,,,,,,,,,,,WRO72,001,WRO72,2023-11-15_12h29.47.189,Trial go no go,2020.2.10,Win32,60,,,space,1,0,5,5,40,1,X,space,0.3208,,,,,,,,,,,,,,
,,,,,,,,,,,,,,,,WRO72,001,WRO72,2023-11-15_12h29.47.189,Trial go no go,2020.2.10,Win32,60,,,space,1,0,6,6,45,1,X,space,0.2991,,,,,,,,,,,,,,
,,,,,,,,,,,,,,,,WRO72,001,WRO72,2023-11-15_12h29.47.189,Trial go no go,2020.2.10,Win32,60,,,space,1,0,7,7,23,1,X,space,0.3283,,,,,,,,,,,,,,
,,,,,,,,,,,,,,,,WRO72,001,WRO72,2023-11-15_12h29.47.189,Trial go no go,2020.2.10,Win32,60,,,space,1,0,8,8,18,1,X,space,0.2818,,,,,,,,,,,,,,
,,,,,,,,,,,,,,,,WRO72,001,WRO72,2023-11-15_12h29.47.189,Trial go no go,2020.2.10,Win32,60,,,space,0,0,9,9,39,1,M,none,0.2615,,,,,,,,,,,,,,
,,,,,,,,,,,,,,,,WRO72,001,WRO72,2023-11-15_12h29.47.189,Trial go no go,2020.2.10,Win32,60,,,,0,0,10,10,36,1,X,space,,,,,,,,,,,,,,,
,,,,,,,,,,,,,,,,WRO72,001,WRO72,2023-11-15_12h29.47.189,Trial go no go,2020.2.10,Win32,60,,,,1,0,11,11,24,1,H,none,,,,,,,,,,,,,,,
,,,,,,,,,,,,,,,,WRO72,001,WRO72,2023-11-15_12h29.47.189,Trial go no go,2020.2.10,Win32,60,,,space,1,0,12,12,0,1,X,space,0.3698,,,,,,,,,,,,,,
,,,,,,,,,,,,,,,,WRO72,001,WRO72,2023-11-15_12h29.47.189,Trial go no go,2020.2.10,Win32,60,,,space,1,0,13,13,25,1,X,space,0.2899,,,,,,,,,,,,,,
,,,,,,,,,,,,,,,,WRO72,001,WRO72,2023-11-15_12h29.47.189,Trial go no go,2020.2.10,Win32,60,,,,1,0,14,14,29,1,T,none,,,,,,,,,,,,,,,
,,,,,,,,,,,,,,,,WRO72,001,WRO72,2023-11-15_12h29.47.189,Trial go no go,2020.2.10,Win32,60,,,space,1,0,15,15,6,1,X,space,0.336,,,,,,,,,,,,,,
,,,,,,,,,,,,,,,,WRO72,001,WRO72,2023-11-15_12h29.47.189,Trial go no go,2020.2.10,Win32,60,,,space,1,0,16,16,17,1,X,space,0.3052,,,,,,,,,,,,,,
,,,,,,,,,,,,,,,,WRO72,001,WRO72,2023-11-15_12h29.47.189,Trial go no go,2020.2.10,Win32,60,,,space,1,0,17,17,42,1,X,space,0.3428,,,,,,,,,,,,,,
,,,,,,,,,,,,,,,,WRO72,001,WRO72,2023-11-15_12h29.47.189,Trial go no go,2020.2.10,Win32,60,,,space,1,0,18,18,30,1,X,space,0.2977,,,,,,,,,,,,,,
,,,,,,,,,,,,,,,,WRO72,001,WRO72,2023-11-15_12h29.47.189,Trial go no go,2020.2.10,Win32,60,,,space,1,0,19,19,2,1,X,space,0.2808,,,,,,,,,,,,,,
,,,,,,,,,,,,,,,,WRO72,001,WRO72,2023-11-15_12h29.47.189,Trial go no go,2020.2.10,Win32,60,,,space,1,0,20,20,48,1,X,space,0.3007,,,,,,,,,,,,,,
,,,,,,,,,,,,,,,,WRO72,001,WRO72,2023-11-15_12h29.47.189,Trial go no go,2020.2.10,Win32,60,,,space,1,0,21,21,32,1,X,space,0.2912,,,,,,,,,,,,,,
,,,,,,,,,,,,,,,,WRO72,001,WRO72,2023-11-15_12h29.47.189,Trial go no go,2020.2.10,Win32,60,,,space,1,0,22,22,26,1,X,space,0.2776,,,,,,,,,,,,,,
,,,,,,,,,,,,,,,,WRO72,001,WRO72,2023-11-15_12h29.47.189,Trial go no go,2020.2.10,Win32,60,,,space,1,0,23,23,35,1,X,space,0.2934,,,,,,,,,,,,,,
,,,,,,,,,,,,,,,,WRO72,001,WRO72,2023-11-15_12h29.47.189,Trial go no go,2020.2.10,Win32,60,,,space,1,0,24,24,8,1,X,space,0.2954,,,,,,,,,,,,,,
,,,,,,,,,,,,,,,,WRO72,001,WRO72,2023-11-15_12h29.47.189,Trial go no go,2020.2.10,Win32,60,,,,1,0,25,25,19,1,K,none,,,,,,,,,,,,,,,
,,,,,,,,,,,,,,,,WRO72,001,WRO72,2023-11-15_12h29.47.189,Trial go no go,2020.2.10,Win32,60,,,,1,0,26,26,4,1,V,none,,,,,,,,,,,,,,,
,,,,,,,,,,,,,,,,WRO72,001,WRO72,2023-11-15_12h29.47.189,Trial go no go,2020.2.10,Win32,60,,,space,1,0,27,27,7,1,X,space,0.4012,,,,,,,,,,,,,,
,,,,,,,,,,,,,,,,WRO72,001,WRO72,2023-11-15_12h29.47.189,Trial go no go,2020.2.10,Win32,60,,,,1,0,28,28,34,1,N,none,,,,,,,,,,,,,,,
,,,,,,,,,,,,,,,,WRO72,001,WRO72,2023-11-15_12h29.47.189,Trial go no go,2020.2.10,Win32,60,,,space,1,0,29,29,20,1,X,space,0.4852,,,,,,,,,,,,,,
,,,,,,,,,,,,,,,,WRO72,001,WRO72,2023-11-15_12h29.47.189,Trial go no go,2020.2.10,Win32,60,,,space,1,0,30,30,21,1,X,space,0.3461,,,,,,,,,,,,,,
,,,,,,,,,,,,,,,,WRO72,001,WRO72,2023-11-15_12h29.47.189,Trial go no go,2020.2.10,Win32,60,,,space,1,0,31,31,11,1,X,space,0.2984,,,,,,,,,,,,,,
,,,,,,,,,,,,,,,,WRO72,001,WRO72,2023-11-15_12h29.47.189,Trial go no go,2020.2.10,Win32,60,,,space,1,0,32,32,43,1,X,space,0.3809,,,,,,,,,,,,,,
,,,,,,,,,,,,,,,,WRO72,001,WRO72,2023-11-15_12h29.47.189,Trial go no go,2020.2.10,Win32,60,,,space,1,0,33,33,10,1,X,space,0.3093,,,,,,,,,,,,,,
,,,,,,,,,,,,,,,,WRO72,001,WRO72,2023-11-15_12h29.47.189,Trial go no go,2020.2.10,Win32,60,,,space,1,0,34,34,22,1,X,space,0.2801,,,,,,,,,,,,,,
,,,,,,,,,,,,,,,,WRO72,001,WRO72,2023-11-15_12h29.47.189,Trial go no go,2020.2.10,Win32,60,,,space,0,0,35,35,14,1,Y,none,0.3086,,,,,,,,,,,,,,
,,,,,,,,,,,,,,,,WRO72,001,WRO72,2023-11-15_12h29.47.189,Trial go no go,2020.2.10,Win32,60,,,,1,0,36,36,49,1,E,none,,,,,,,,,,,,,,,
,,,,,,,,,,,,,,,,WRO72,001,WRO72,2023-11-15_12h29.47.189,Trial go no go,2020.2.10,Win32,60,,,space,1,0,37,37,16,1,X,space,0.4304,,,,,,,,,,,,,,
,,,,,,,,,,,,,,,,WRO72,001,WRO72,2023-11-15_12h29.47.189,Trial go no go,2020.2.10,Win32,60,,,space,1,0,38,38,46,1,X,space,0.496,,,,,,,,,,,,,,
,,,,,,,,,,,,,,,,WRO72,001,WRO72,2023-11-15_12h29.47.189,Trial go no go,2020.2.10,Win32,60,,,space,1,0,39,39,38,1,X,space,0.3186,,,,,,,,,,,,,,
,,,,,,,,,,,,,,,,WRO72,001,WRO72,2023-11-15_12h29.47.189,Trial go no go,2020.2.10,Win32,60,,,space,1,0,40,40,37,1,X,space,0.3221,,,,,,,,,,,,,,
,,,,,,,,,,,,,,,,WRO72,001,WRO72,2023-11-15_12h29.47.189,Trial go no go,2020.2.10,Win32,60,,,space,1,0,41,41,31,1,X,space,0.3033,,,,,,,,,,,,,,
,,,,,,,,,,,,,,,,WRO72,001,WRO72,2023-11-15_12h29.47.189,Trial go no go,2020.2.10,Win32,60,,,,1,0,42,42,44,1,F,none,,,,,,,,,,,,,,,
,,,,,,,,,,,,,,,,WRO72,001,WRO72,2023-11-15_12h29.47.189,Trial go no go,2020.2.10,Win32,60,,,space,1,0,43,43,28,1,X,space,0.3732,,,,,,,,,,,,,,
,,,,,,,,,,,,,,,,WRO72,001,WRO72,2023-11-15_12h29.47.189,Trial go no go,2020.2.10,Win32,60,,,space,1,0,44,44,15,1,X,space,0.3355,,,,,,,,,,,,,,
,,,,,,,,,,,,,,,,WRO72,001,WRO72,2023-11-15_12h29.47.189,Trial go no go,2020.2.10,Win32,60,,,space,1,0,45,45,3,1,X,space,0.3113,,,,,,,,,,,,,,
,,,,,,,,,,,,,,,,WRO72,001,WRO72,2023-11-15_12h29.47.189,Trial go no go,2020.2.10,Win32,60,,,space,1,0,46,46,13,1,X,space,0.3575,,,,,,,,,,,,,,
,,,,,,,,,,,,,,,,WRO72,001,WRO72,2023-11-15_12h29.47.189,Trial go no go,2020.2.10,Win32,60,,,space,1,0,47,47,27,1,X,space,0.3358,,,,,,,,,,,,,,
,,,,,,,,,,,,,,,,WRO72,001,WRO72,2023-11-15_12h29.47.189,Trial go no go,2020.2.10,Win32,60,,,space,1,0,48,48,47,1,X,space,0.3266,,,,,,,,,,,,,,
,,,,,,,,,,,,,,,,WRO72,001,WRO72,2023-11-15_12h29.47.189,Trial go no go,2020.2.10,Win32,60,,,space,1,0,49,49,41,1,X,space,0.4662,,,,,,,,,,,,,,
,,,,,,,,,,,,,,,,WRO72,001,WRO72,2023-11-15_12h29.47.189,Trial go no go,2020.2.10,Win32,60,,,,,,,,,,,,,z,16.6155,,0,0,0,0,7,1,A,space,,,
,,,,,,,,,,,,,,,,WRO72,001,WRO72,2023-11-15_12h29.47.189,Trial go no go,2020.2.10,Win32,60,,,,,,,,,,,,,,,space,1,0,1,1,2,1,R,space,0.4035,,
,,,,,,,,,,,,,,,,WRO72,001,WRO72,2023-11-15_12h29.47.189,Trial go no go,2020.2.10,Win32,60,,,,,,,,,,,,,,,space,1,0,2,2,37,1,W,space,0.2648,,
,,,,,,,,,,,,,,,,WRO72,001,WRO72,2023-11-15_12h29.47.189,Trial go no go,2020.2.10,Win32,60,,,,,,,,,,,,,,,space,1,0,3,3,18,1,W,space,0.3408,,
,,,,,,,,,,,,,,,,WRO72,001,WRO72,2023-11-15_12h29.47.189,Trial go no go,2020.2.10,Win32,60,,,,,,,,,,,,,,,space,1,0,4,4,5,1,Y,space,0.4447,,
,,,,,,,,,,,,,,,,WRO72,001,WRO72,2023-11-15_12h29.47.189,Trial go no go,2020.2.10,Win32,60,,,,,,,,,,,,,,,space,1,0,5,5,33,1,V,space,0.2717,,
,,,,,,,,,,,,,,,,WRO72,001,WRO72,2023-11-15_12h29.47.189,Trial go no go,2020.2.10,Win32,60,,,,,,,,,,,,,,,space,1,0,6,6,17,1,M,space,0.3354,,
,,,,,,,,,,,,,,,,WRO72,001,WRO72,2023-11-15_12h29.47.189,Trial go no go,2020.2.10,Win32,60,,,,,,,,,,,,,,,,1,0,7,7,44,1,X,none,,,
,,,,,,,,,,,,,,,,WRO72,001,WRO72,2023-11-15_12h29.47.189,Trial go no go,2020.2.10,Win32,60,,,,,,,,,,,,,,,space,1,0,8,8,40,1,R,space,0.3107,,
,,,,,,,,,,,,,,,,WRO72,001,WRO72,2023-11-15_12h29.47.189,Trial go no go,2020.2.10,Win32,60,,,,,,,,,,,,,,,space,1,0,9,9,8,1,F,space,0.3401,,
,,,,,,,,,,,,,,,,WRO72,001,WRO72,2023-11-15_12h29.47.189,Trial go no go,2020.2.10,Win32,60,,,,,,,,,,,,,,,space,1,0,10,10,16,1,N,space,0.2727,,
,,,,,,,,,,,,,,,,WRO72,001,WRO72,2023-11-15_12h29.47.189,Trial go no go,2020.2.10,Win32,60,,,,,,,,,,,,,,,space,1,0,11,11,10,1,H,space,0.2735,,
,,,,,,,,,,,,,,,,WRO72,001,WRO72,2023-11-15_12h29.47.189,Trial go no go,2020.2.10,Win32,60,,,,,,,,,,,,,,,space,1,0,12,12,15,1,V,space,0.2873,,
,,,,,,,,,,,,,,,,WRO72,001,WRO72,2023-11-15_12h29.47.189,Trial go no go,2020.2.10,Win32,60,,,,,,,,,,,,,,,space,1,0,13,13,0,1,W,space,0.3906,,
,,,,,,,,,,,,,,,,WRO72,001,WRO72,2023-11-15_12h29.47.189,Trial go no go,2020.2.10,Win32,60,,,,,,,,,,,,,,,space,1,0,14,14,11,1,K,space,0.3053,,
,,,,,,,,,,,,,,,,WRO72,001,WRO72,2023-11-15_12h29.47.189,Trial go no go,2020.2.10,Win32,60,,,,,,,,,,,,,,,space,0,0,15,15,19,1,X,none,0.2522,,
,,,,,,,,,,,,,,,,WRO72,001,WRO72,2023-11-15_12h29.47.189,Trial go no go,2020.2.10,Win32,60,,,,,,,,,,,,,,,space,1,0,16,16,21,1,R,space,0.3325,,
,,,,,,,,,,,,,,,,WRO72,001,WRO72,2023-11-15_12h29.47.189,Trial go no go,2020.2.10,Win32,60,,,,,,,,,,,,,,,space,0,0,17,17,14,1,X,none,0.2737,,
,,,,,,,,,,,,,,,,WRO72,001,WRO72,2023-11-15_12h29.47.189,Trial go no go,2020.2.10,Win32,60,,,,,,,,,,,,,,,space,1,0,18,18,25,1,I,space,0.3852,,
,,,,,,,,,,,,,,,,WRO72,001,WRO72,2023-11-15_12h29.47.189,Trial go no go,2020.2.10,Win32,60,,,,,,,,,,,,,,,,0,0,19,19,3,1,T,space,,,
,,,,,,,,,,,,,,,,WRO72,001,WRO72,2023-11-15_12h29.47.189,Trial go no go,2020.2.10,Win32,60,,,,,,,,,,,,,,,,0,0,20,20,43,1,I,space,,,
,,,,,,,,,,,,,,,,WRO72,001,WRO72,2023-11-15_12h29.47.189,Trial go no go,2020.2.10,Win32,60,,,,,,,,,,,,,,,space,0,0,21,21,49,1,X,none,0.2693,,
,,,,,,,,,,,,,,,,WRO72,001,WRO72,2023-11-15_12h29.47.189,Trial go no go,2020.2.10,Win32,60,,,,,,,,,,,,,,,space,1,0,22,22,23,1,Y,space,0.4137,,
,,,,,,,,,,,,,,,,WRO72,001,WRO72,2023-11-15_12h29.47.189,Trial go no go,2020.2.10,Win32,60,,,,,,,,,,,,,,,space,1,0,23,23,12,1,L,space,0.3256,,
,,,,,,,,,,,,,,,,WRO72,001,WRO72,2023-11-15_12h29.47.189,Trial go no go,2020.2.10,Win32,60,,,,,,,,,,,,,,,,1,0,24,24,9,1,X,none,,,
,,,,,,,,,,,,,,,,WRO72,001,WRO72,2023-11-15_12h29.47.189,Trial go no go,2020.2.10,Win32,60,,,,,,,,,,,,,,,space,1,0,25,25,13,1,Z,space,0.3319,,
,,,,,,,,,,,,,,,,WRO72,001,WRO72,2023-11-15_12h29.47.189,Trial go no go,2020.2.10,Win32,60,,,,,,,,,,,,,,,space,1,0,26,26,20,1,E,space,0.3766,,
,,,,,,,,,,,,,,,,WRO72,001,WRO72,2023-11-15_12h29.47.189,Trial go no go,2020.2.10,Win32,60,,,,,,,,,,,,,,,,1,0,27,27,34,1,X,none,,,
,,,,,,,,,,,,,,,,WRO72,001,WRO72,2023-11-15_12h29.47.189,Trial go no go,2020.2.10,Win32,60,,,,,,,,,,,,,,,space,1,0,28,28,32,1,Z,space,0.2716,,
,,,,,,,,,,,,,,,,WRO72,001,WRO72,2023-11-15_12h29.47.189,Trial go no go,2020.2.10,Win32,60,,,,,,,,,,,,,,,space,1,0,29,29,31,1,L,space,0.3199,,
,,,,,,,,,,,,,,,,WRO72,001,WRO72,2023-11-15_12h29.47.189,Trial go no go,2020.2.10,Win32,60,,,,,,,,,,,,,,,space,1,0,30,30,27,1,F,space,0.3432,,
,,,,,,,,,,,,,,,,WRO72,001,WRO72,2023-11-15_12h29.47.189,Trial go no go,2020.2.10,Win32,60,,,,,,,,,,,,,,,,1,0,31,31,24,1,X,none,,,
,,,,,,,,,,,,,,,,WRO72,001,WRO72,2023-11-15_12h29.47.189,Trial go no go,2020.2.10,Win32,60,,,,,,,,,,,,,,,space,1,0,32,32,30,1,K,space,0.3207,,
,,,,,,,,,,,,,,,,WRO72,001,WRO72,2023-11-15_12h29.47.189,Trial go no go,2020.2.10,Win32,60,,,,,,,,,,,,,,,space,1,0,33,33,28,1,H,space,0.2503,,
,,,,,,,,,,,,,,,,WRO72,001,WRO72,2023-11-15_12h29.47.189,Trial go no go,2020.2.10,Win32,60,,,,,,,,,,,,,,,space,1,0,34,34,46,1,F,space,0.398,,
,,,,,,,,,,,,,,,,WRO72,001,WRO72,2023-11-15_12h29.47.189,Trial go no go,2020.2.10,Win32,60,,,,,,,,,,,,,,,space,1,0,35,35,22,1,T,space,0.5189,,
,,,,,,,,,,,,,,,,WRO72,001,WRO72,2023-11-15_12h29.47.189,Trial go no go,2020.2.10,Win32,60,,,,,,,,,,,,,,,space,1,0,36,36,45,1,A,space,0.4838,,
,,,,,,,,,,,,,,,,WRO72,001,WRO72,2023-11-15_12h29.47.189,Trial go no go,2020.2.10,Win32,60,,,,,,,,,,,,,,,,1,0,37,37,4,1,X,none,,,
,,,,,,,,,,,,,,,,WRO72,001,WRO72,2023-11-15_12h29.47.189,Trial go no go,2020.2.10,Win32,60,,,,,,,,,,,,,,,space,1,0,38,38,1,1,E,space,0.2864,,
,,,,,,,,,,,,,,,,WRO72,001,WRO72,2023-11-15_12h29.47.189,Trial go no go,2020.2.10,Win32,60,,,,,,,,,,,,,,,space,1,0,39,39,47,1,H,space,0.284,,
,,,,,,,,,,,,,,,,WRO72,001,WRO72,2023-11-15_12h29.47.189,Trial go no go,2020.2.10,Win32,60,,,,,,,,,,,,,,,space,1,0,40,40,48,1,K,space,0.2273,,
,,,,,,,,,,,,,,,,WRO72,001,WRO72,2023-11-15_12h29.47.189,Trial go no go,2020.2.10,Win32,60,,,,,,,,,,,,,,,space,1,0,41,41,38,1,E,space,0.3179,,
,,,,,,,,,,,,,,,,WRO72,001,WRO72,2023-11-15_12h29.47.189,Trial go no go,2020.2.10,Win32,60,,,,,,,,,,,,,,,space,1,0,42,42,26,1,A,space,0.3479,,
,,,,,,,,,,,,,,,,WRO72,001,WRO72,2023-11-15_12h29.47.189,Trial go no go,2020.2.10,Win32,60,,,,,,,,,,,,,,,,1,0,43,43,29,1,X,none,,,
,,,,,,,,,,,,,,,,WRO72,001,WRO72,2023-11-15_12h29.47.189,Trial go no go,2020.2.10,Win32,60,,,,,,,,,,,,,,,space,1,0,44,44,6,1,I,space,0.3555,,
,,,,,,,,,,,,,,,,WRO72,001,WRO72,2023-11-15_12h29.47.189,Trial go no go,2020.2.10,Win32,60,,,,,,,,,,,,,,,space,1,0,45,45,35,1,N,space,0.2846,,
,,,,,,,,,,,,,,,,WRO72,001,WRO72,2023-11-15_12h29.47.189,Trial go no go,2020.2.10,Win32,60,,,,,,,,,,,,,,,space,1,0,46,46,42,1,Y,space,0.2864,,
,,,,,,,,,,,,,,,,WRO72,001,WRO72,2023-11-15_12h29.47.189,Trial go no go,2020.2.10,Win32,60,,,,,,,,,,,,,,,,1,0,47,47,39,1,X,none,,,
,,,,,,,,,,,,,,,,WRO72,001,WRO72,2023-11-15_12h29.47.189,Trial go no go,2020.2.10,Win32,60,,,,,,,,,,,,,,,space,1,0,48,48,41,1,T,space,0.2986,,
,,,,,,,,,,,,,,,,WRO72,001,WRO72,2023-11-15_12h29.47.189,Trial go no go,2020.2.10,Win32,60,,,,,,,,,,,,,,,space,1,0,49,49,36,1,M,space,0.2582,,
,,,,,,,,,,,,,,,,WRO72,001,WRO72,2023-11-15_12h29.47.189,Trial go no go,2020.2.10,Win32,60,,,,,,,,,,,,,,,,,,,,,,,,,space,19.2442
