resp_Welcome.keys,resp_Welcome.rt,resp_Instr_Intro.keys,resp_Instr_Intro.rt,resp_Instr_Prac1.keys,resp_Instr_Prac1.rt,resp_trial_Prac1.keys,resp_trial_Prac1.corr,prac_trials.thisRepN,prac_trials.thisTrialN,prac_trials.thisN,prac_trials.thisIndex,prac_trials.ran,stimulus_prac1,corrAns_prac1,participant,session,indywidualny kod,date,expName,psychopyVersion,OS,frameRate,fbclid,resp_trial_Prac1.rt,resp_Instr_Test1.keys,resp_Instr_Test1.rt,resp_trial_Test1.keys,resp_trial_Test1.corr,resp_trial_Test1.rt,test1trial.thisRepN,test1trial.thisTrialN,test1trial.thisN,test1trial.thisIndex,test1trial.ran,stimulus_test1,corrAns_test1,resp_Instr_Test2.keys,resp_Instr_Test2.rt,key_resp_Test2.keys,key_resp_Test2.corr,test2trial.thisRepN,test2trial.thisTrialN,test2trial.thisN,test2trial.thisIndex,test2trial.ran,stimulus_test2,corrAns_test2,key_resp_Test2.rt,resp_theEnd.keys,resp_theEnd.rt
space,7.7806,space,21.3855,space,10.5545,,0,0,0,0,1,1,X,space,wro73,001,,2023-11-09_08h39.43.565,Trial go no go,2020.2.10,MacIntel,60,IwAR0CH4BeV3CdePqQ01FuYgdznempy-L1P1roCr9QghNFcAZrNjVRaMw7T_E,,,,,,,,,,,,,,,,,,,,,,,,,,,
,,,,,,space,1,0,1,1,11,1,X,space,wro73,001,,2023-11-09_08h39.43.565,Trial go no go,2020.2.10,MacIntel,60,IwAR0CH4BeV3CdePqQ01FuYgdznempy-L1P1roCr9QghNFcAZrNjVRaMw7T_E,0.5361,,,,,,,,,,,,,,,,,,,,,,,,,,
,,,,,,space,1,0,2,2,2,1,X,space,wro73,001,,2023-11-09_08h39.43.565,Trial go no go,2020.2.10,MacIntel,60,IwAR0CH4BeV3CdePqQ01FuYgdznempy-L1P1roCr9QghNFcAZrNjVRaMw7T_E,0.5345,,,,,,,,,,,,,,,,,,,,,,,,,,
,,,,,,space,1,0,3,3,10,1,X,space,wro73,001,,2023-11-09_08h39.43.565,Trial go no go,2020.2.10,MacIntel,60,IwAR0CH4BeV3CdePqQ01FuYgdznempy-L1P1roCr9QghNFcAZrNjVRaMw7T_E,0.4364,,,,,,,,,,,,,,,,,,,,,,,,,,
,,,,,,space,1,0,4,4,0,1,X,space,wro73,001,,2023-11-09_08h39.43.565,Trial go no go,2020.2.10,MacIntel,60,IwAR0CH4BeV3CdePqQ01FuYgdznempy-L1P1roCr9QghNFcAZrNjVRaMw7T_E,0.3887,,,,,,,,,,,,,,,,,,,,,,,,,,
,,,,,,space,1,0,5,5,7,1,X,space,wro73,001,,2023-11-09_08h39.43.565,Trial go no go,2020.2.10,MacIntel,60,IwAR0CH4BeV3CdePqQ01FuYgdznempy-L1P1roCr9QghNFcAZrNjVRaMw7T_E,0.3988,,,,,,,,,,,,,,,,,,,,,,,,,,
,,,,,,,0,0,6,6,13,1,X,space,wro73,001,,2023-11-09_08h39.43.565,Trial go no go,2020.2.10,MacIntel,60,IwAR0CH4BeV3CdePqQ01FuYgdznempy-L1P1roCr9QghNFcAZrNjVRaMw7T_E,,,,,,,,,,,,,,,,,,,,,,,,,,,
,,,,,,space,1,0,7,7,8,1,X,space,wro73,001,,2023-11-09_08h39.43.565,Trial go no go,2020.2.10,MacIntel,60,IwAR0CH4BeV3CdePqQ01FuYgdznempy-L1P1roCr9QghNFcAZrNjVRaMw7T_E,0.5869,,,,,,,,,,,,,,,,,,,,,,,,,,
,,,,,,space,1,0,8,8,6,1,X,space,wro73,001,,2023-11-09_08h39.43.565,Trial go no go,2020.2.10,MacIntel,60,IwAR0CH4BeV3CdePqQ01FuYgdznempy-L1P1roCr9QghNFcAZrNjVRaMw7T_E,0.468,,,,,,,,,,,,,,,,,,,,,,,,,,
,,,,,,space,1,0,9,9,12,1,X,space,wro73,001,,2023-11-09_08h39.43.565,Trial go no go,2020.2.10,MacIntel,60,IwAR0CH4BeV3CdePqQ01FuYgdznempy-L1P1roCr9QghNFcAZrNjVRaMw7T_E,0.3999,,,,,,,,,,,,,,,,,,,,,,,,,,
,,,,,,,1,0,10,10,9,1,V,none,wro73,001,,2023-11-09_08h39.43.565,Trial go no go,2020.2.10,MacIntel,60,IwAR0CH4BeV3CdePqQ01FuYgdznempy-L1P1roCr9QghNFcAZrNjVRaMw7T_E,,,,,,,,,,,,,,,,,,,,,,,,,,,
,,,,,,,1,0,11,11,14,1,K,none,wro73,001,,2023-11-09_08h39.43.565,Trial go no go,2020.2.10,MacIntel,60,IwAR0CH4BeV3CdePqQ01FuYgdznempy-L1P1roCr9QghNFcAZrNjVRaMw7T_E,,,,,,,,,,,,,,,,,,,,,,,,,,,
,,,,,,space,1,0,12,12,3,1,X,space,wro73,001,,2023-11-09_08h39.43.565,Trial go no go,2020.2.10,MacIntel,60,IwAR0CH4BeV3CdePqQ01FuYgdznempy-L1P1roCr9QghNFcAZrNjVRaMw7T_E,0.3793,,,,,,,,,,,,,,,,,,,,,,,,,,
,,,,,,space,1,0,13,13,5,1,X,space,wro73,001,,2023-11-09_08h39.43.565,Trial go no go,2020.2.10,MacIntel,60,IwAR0CH4BeV3CdePqQ01FuYgdznempy-L1P1roCr9QghNFcAZrNjVRaMw7T_E,0.4133,,,,,,,,,,,,,,,,,,,,,,,,,,
,,,,,,,1,0,14,14,4,1,W,none,wro73,001,,2023-11-09_08h39.43.565,Trial go no go,2020.2.10,MacIntel,60,IwAR0CH4BeV3CdePqQ01FuYgdznempy-L1P1roCr9QghNFcAZrNjVRaMw7T_E,,,,,,,,,,,,,,,,,,,,,,,,,,,
,,,,,,,,,,,,,,,wro73,001,,2023-11-09_08h39.43.565,Trial go no go,2020.2.10,MacIntel,60,IwAR0CH4BeV3CdePqQ01FuYgdznempy-L1P1roCr9QghNFcAZrNjVRaMw7T_E,,space,3.8228,space,1,0.4557,0,0,0,21,1,X,space,,,,,,,,,,,,,,
,,,,,,,,,,,,,,,wro73,001,,2023-11-09_08h39.43.565,Trial go no go,2020.2.10,MacIntel,60,IwAR0CH4BeV3CdePqQ01FuYgdznempy-L1P1roCr9QghNFcAZrNjVRaMw7T_E,,,,space,1,0.5172,0,1,1,47,1,X,space,,,,,,,,,,,,,,
,,,,,,,,,,,,,,,wro73,001,,2023-11-09_08h39.43.565,Trial go no go,2020.2.10,MacIntel,60,IwAR0CH4BeV3CdePqQ01FuYgdznempy-L1P1roCr9QghNFcAZrNjVRaMw7T_E,,,,space,0,0.2764,0,2,2,14,1,Y,none,,,,,,,,,,,,,,
,,,,,,,,,,,,,,,wro73,001,,2023-11-09_08h39.43.565,Trial go no go,2020.2.10,MacIntel,60,IwAR0CH4BeV3CdePqQ01FuYgdznempy-L1P1roCr9QghNFcAZrNjVRaMw7T_E,,,,space,1,0.3279,0,3,3,8,1,X,space,,,,,,,,,,,,,,
,,,,,,,,,,,,,,,wro73,001,,2023-11-09_08h39.43.565,Trial go no go,2020.2.10,MacIntel,60,IwAR0CH4BeV3CdePqQ01FuYgdznempy-L1P1roCr9QghNFcAZrNjVRaMw7T_E,,,,space,1,0.367,0,4,4,30,1,X,space,,,,,,,,,,,,,,
,,,,,,,,,,,,,,,wro73,001,,2023-11-09_08h39.43.565,Trial go no go,2020.2.10,MacIntel,60,IwAR0CH4BeV3CdePqQ01FuYgdznempy-L1P1roCr9QghNFcAZrNjVRaMw7T_E,,,,space,1,0.3674,0,5,5,2,1,X,space,,,,,,,,,,,,,,
,,,,,,,,,,,,,,,wro73,001,,2023-11-09_08h39.43.565,Trial go no go,2020.2.10,MacIntel,60,IwAR0CH4BeV3CdePqQ01FuYgdznempy-L1P1roCr9QghNFcAZrNjVRaMw7T_E,,,,,1,,0,6,6,49,1,E,none,,,,,,,,,,,,,,
,,,,,,,,,,,,,,,wro73,001,,2023-11-09_08h39.43.565,Trial go no go,2020.2.10,MacIntel,60,IwAR0CH4BeV3CdePqQ01FuYgdznempy-L1P1roCr9QghNFcAZrNjVRaMw7T_E,,,,space,1,0.2975,0,7,7,25,1,X,space,,,,,,,,,,,,,,
,,,,,,,,,,,,,,,wro73,001,,2023-11-09_08h39.43.565,Trial go no go,2020.2.10,MacIntel,60,IwAR0CH4BeV3CdePqQ01FuYgdznempy-L1P1roCr9QghNFcAZrNjVRaMw7T_E,,,,space,1,0.367,0,8,8,31,1,X,space,,,,,,,,,,,,,,
,,,,,,,,,,,,,,,wro73,001,,2023-11-09_08h39.43.565,Trial go no go,2020.2.10,MacIntel,60,IwAR0CH4BeV3CdePqQ01FuYgdznempy-L1P1roCr9QghNFcAZrNjVRaMw7T_E,,,,space,1,0.3324,0,9,9,12,1,X,space,,,,,,,,,,,,,,
,,,,,,,,,,,,,,,wro73,001,,2023-11-09_08h39.43.565,Trial go no go,2020.2.10,MacIntel,60,IwAR0CH4BeV3CdePqQ01FuYgdznempy-L1P1roCr9QghNFcAZrNjVRaMw7T_E,,,,,1,,0,10,10,24,1,H,none,,,,,,,,,,,,,,
,,,,,,,,,,,,,,,wro73,001,,2023-11-09_08h39.43.565,Trial go no go,2020.2.10,MacIntel,60,IwAR0CH4BeV3CdePqQ01FuYgdznempy-L1P1roCr9QghNFcAZrNjVRaMw7T_E,,,,space,1,0.3803,0,11,11,23,1,X,space,,,,,,,,,,,,,,
,,,,,,,,,,,,,,,wro73,001,,2023-11-09_08h39.43.565,Trial go no go,2020.2.10,MacIntel,60,IwAR0CH4BeV3CdePqQ01FuYgdznempy-L1P1roCr9QghNFcAZrNjVRaMw7T_E,,,,space,1,0.4458,0,12,12,36,1,X,space,,,,,,,,,,,,,,
,,,,,,,,,,,,,,,wro73,001,,2023-11-09_08h39.43.565,Trial go no go,2020.2.10,MacIntel,60,IwAR0CH4BeV3CdePqQ01FuYgdznempy-L1P1roCr9QghNFcAZrNjVRaMw7T_E,,,,space,1,0.2806,0,13,13,18,1,X,space,,,,,,,,,,,,,,
,,,,,,,,,,,,,,,wro73,001,,2023-11-09_08h39.43.565,Trial go no go,2020.2.10,MacIntel,60,IwAR0CH4BeV3CdePqQ01FuYgdznempy-L1P1roCr9QghNFcAZrNjVRaMw7T_E,,,,space,1,0.2899,0,14,14,17,1,X,space,,,,,,,,,,,,,,
,,,,,,,,,,,,,,,wro73,001,,2023-11-09_08h39.43.565,Trial go no go,2020.2.10,MacIntel,60,IwAR0CH4BeV3CdePqQ01FuYgdznempy-L1P1roCr9QghNFcAZrNjVRaMw7T_E,,,,space,1,0.2884,0,15,15,6,1,X,space,,,,,,,,,,,,,,
,,,,,,,,,,,,,,,wro73,001,,2023-11-09_08h39.43.565,Trial go no go,2020.2.10,MacIntel,60,IwAR0CH4BeV3CdePqQ01FuYgdznempy-L1P1roCr9QghNFcAZrNjVRaMw7T_E,,,,space,0,0.2858,0,16,16,44,1,F,none,,,,,,,,,,,,,,
,,,,,,,,,,,,,,,wro73,001,,2023-11-09_08h39.43.565,Trial go no go,2020.2.10,MacIntel,60,IwAR0CH4BeV3CdePqQ01FuYgdznempy-L1P1roCr9QghNFcAZrNjVRaMw7T_E,,,,space,1,0.3307,0,17,17,33,1,X,space,,,,,,,,,,,,,,
,,,,,,,,,,,,,,,wro73,001,,2023-11-09_08h39.43.565,Trial go no go,2020.2.10,MacIntel,60,IwAR0CH4BeV3CdePqQ01FuYgdznempy-L1P1roCr9QghNFcAZrNjVRaMw7T_E,,,,space,1,0.3249,0,18,18,16,1,X,space,,,,,,,,,,,,,,
,,,,,,,,,,,,,,,wro73,001,,2023-11-09_08h39.43.565,Trial go no go,2020.2.10,MacIntel,60,IwAR0CH4BeV3CdePqQ01FuYgdznempy-L1P1roCr9QghNFcAZrNjVRaMw7T_E,,,,space,1,0.3369,0,19,19,27,1,X,space,,,,,,,,,,,,,,
,,,,,,,,,,,,,,,wro73,001,,2023-11-09_08h39.43.565,Trial go no go,2020.2.10,MacIntel,60,IwAR0CH4BeV3CdePqQ01FuYgdznempy-L1P1roCr9QghNFcAZrNjVRaMw7T_E,,,,space,1,0.2997,0,20,20,11,1,X,space,,,,,,,,,,,,,,
,,,,,,,,,,,,,,,wro73,001,,2023-11-09_08h39.43.565,Trial go no go,2020.2.10,MacIntel,60,IwAR0CH4BeV3CdePqQ01FuYgdznempy-L1P1roCr9QghNFcAZrNjVRaMw7T_E,,,,space,0,0.2958,0,21,21,19,1,K,none,,,,,,,,,,,,,,
,,,,,,,,,,,,,,,wro73,001,,2023-11-09_08h39.43.565,Trial go no go,2020.2.10,MacIntel,60,IwAR0CH4BeV3CdePqQ01FuYgdznempy-L1P1roCr9QghNFcAZrNjVRaMw7T_E,,,,space,1,0.3263,0,22,22,22,1,X,space,,,,,,,,,,,,,,
,,,,,,,,,,,,,,,wro73,001,,2023-11-09_08h39.43.565,Trial go no go,2020.2.10,MacIntel,60,IwAR0CH4BeV3CdePqQ01FuYgdznempy-L1P1roCr9QghNFcAZrNjVRaMw7T_E,,,,space,1,0.3504,0,23,23,15,1,X,space,,,,,,,,,,,,,,
,,,,,,,,,,,,,,,wro73,001,,2023-11-09_08h39.43.565,Trial go no go,2020.2.10,MacIntel,60,IwAR0CH4BeV3CdePqQ01FuYgdznempy-L1P1roCr9QghNFcAZrNjVRaMw7T_E,,,,,1,,0,24,24,4,1,V,none,,,,,,,,,,,,,,
,,,,,,,,,,,,,,,wro73,001,,2023-11-09_08h39.43.565,Trial go no go,2020.2.10,MacIntel,60,IwAR0CH4BeV3CdePqQ01FuYgdznempy-L1P1roCr9QghNFcAZrNjVRaMw7T_E,,,,space,1,0.3489,0,25,25,38,1,X,space,,,,,,,,,,,,,,
,,,,,,,,,,,,,,,wro73,001,,2023-11-09_08h39.43.565,Trial go no go,2020.2.10,MacIntel,60,IwAR0CH4BeV3CdePqQ01FuYgdznempy-L1P1roCr9QghNFcAZrNjVRaMw7T_E,,,,,1,,0,26,26,29,1,T,none,,,,,,,,,,,,,,
,,,,,,,,,,,,,,,wro73,001,,2023-11-09_08h39.43.565,Trial go no go,2020.2.10,MacIntel,60,IwAR0CH4BeV3CdePqQ01FuYgdznempy-L1P1roCr9QghNFcAZrNjVRaMw7T_E,,,,space,1,0.3628,0,27,27,35,1,X,space,,,,,,,,,,,,,,
,,,,,,,,,,,,,,,wro73,001,,2023-11-09_08h39.43.565,Trial go no go,2020.2.10,MacIntel,60,IwAR0CH4BeV3CdePqQ01FuYgdznempy-L1P1roCr9QghNFcAZrNjVRaMw7T_E,,,,,1,,0,28,28,39,1,M,none,,,,,,,,,,,,,,
,,,,,,,,,,,,,,,wro73,001,,2023-11-09_08h39.43.565,Trial go no go,2020.2.10,MacIntel,60,IwAR0CH4BeV3CdePqQ01FuYgdznempy-L1P1roCr9QghNFcAZrNjVRaMw7T_E,,,,space,1,0.3318,0,29,29,37,1,X,space,,,,,,,,,,,,,,
,,,,,,,,,,,,,,,wro73,001,,2023-11-09_08h39.43.565,Trial go no go,2020.2.10,MacIntel,60,IwAR0CH4BeV3CdePqQ01FuYgdznempy-L1P1roCr9QghNFcAZrNjVRaMw7T_E,,,,,0,,0,30,30,45,1,X,space,,,,,,,,,,,,,,
,,,,,,,,,,,,,,,wro73,001,,2023-11-09_08h39.43.565,Trial go no go,2020.2.10,MacIntel,60,IwAR0CH4BeV3CdePqQ01FuYgdznempy-L1P1roCr9QghNFcAZrNjVRaMw7T_E,,,,space,1,0.2861,0,31,31,46,1,X,space,,,,,,,,,,,,,,
,,,,,,,,,,,,,,,wro73,001,,2023-11-09_08h39.43.565,Trial go no go,2020.2.10,MacIntel,60,IwAR0CH4BeV3CdePqQ01FuYgdznempy-L1P1roCr9QghNFcAZrNjVRaMw7T_E,,,,space,1,0.2977,0,32,32,10,1,X,space,,,,,,,,,,,,,,
,,,,,,,,,,,,,,,wro73,001,,2023-11-09_08h39.43.565,Trial go no go,2020.2.10,MacIntel,60,IwAR0CH4BeV3CdePqQ01FuYgdznempy-L1P1roCr9QghNFcAZrNjVRaMw7T_E,,,,space,1,0.2866,0,33,33,20,1,X,space,,,,,,,,,,,,,,
,,,,,,,,,,,,,,,wro73,001,,2023-11-09_08h39.43.565,Trial go no go,2020.2.10,MacIntel,60,IwAR0CH4BeV3CdePqQ01FuYgdznempy-L1P1roCr9QghNFcAZrNjVRaMw7T_E,,,,space,1,0.286,0,34,34,43,1,X,space,,,,,,,,,,,,,,
,,,,,,,,,,,,,,,wro73,001,,2023-11-09_08h39.43.565,Trial go no go,2020.2.10,MacIntel,60,IwAR0CH4BeV3CdePqQ01FuYgdznempy-L1P1roCr9QghNFcAZrNjVRaMw7T_E,,,,space,1,0.3872,0,35,35,0,1,X,space,,,,,,,,,,,,,,
,,,,,,,,,,,,,,,wro73,001,,2023-11-09_08h39.43.565,Trial go no go,2020.2.10,MacIntel,60,IwAR0CH4BeV3CdePqQ01FuYgdznempy-L1P1roCr9QghNFcAZrNjVRaMw7T_E,,,,space,1,0.3056,0,36,36,48,1,X,space,,,,,,,,,,,,,,
,,,,,,,,,,,,,,,wro73,001,,2023-11-09_08h39.43.565,Trial go no go,2020.2.10,MacIntel,60,IwAR0CH4BeV3CdePqQ01FuYgdznempy-L1P1roCr9QghNFcAZrNjVRaMw7T_E,,,,space,1,0.3033,0,37,37,28,1,X,space,,,,,,,,,,,,,,
,,,,,,,,,,,,,,,wro73,001,,2023-11-09_08h39.43.565,Trial go no go,2020.2.10,MacIntel,60,IwAR0CH4BeV3CdePqQ01FuYgdznempy-L1P1roCr9QghNFcAZrNjVRaMw7T_E,,,,space,1,0.3014,0,38,38,7,1,X,space,,,,,,,,,,,,,,
,,,,,,,,,,,,,,,wro73,001,,2023-11-09_08h39.43.565,Trial go no go,2020.2.10,MacIntel,60,IwAR0CH4BeV3CdePqQ01FuYgdznempy-L1P1roCr9QghNFcAZrNjVRaMw7T_E,,,,space,0,0.2499,0,39,39,9,1,W,none,,,,,,,,,,,,,,
,,,,,,,,,,,,,,,wro73,001,,2023-11-09_08h39.43.565,Trial go no go,2020.2.10,MacIntel,60,IwAR0CH4BeV3CdePqQ01FuYgdznempy-L1P1roCr9QghNFcAZrNjVRaMw7T_E,,,,space,1,0.3304,0,40,40,40,1,X,space,,,,,,,,,,,,,,
,,,,,,,,,,,,,,,wro73,001,,2023-11-09_08h39.43.565,Trial go no go,2020.2.10,MacIntel,60,IwAR0CH4BeV3CdePqQ01FuYgdznempy-L1P1roCr9QghNFcAZrNjVRaMw7T_E,,,,space,1,0.3533,0,41,41,1,1,X,space,,,,,,,,,,,,,,
,,,,,,,,,,,,,,,wro73,001,,2023-11-09_08h39.43.565,Trial go no go,2020.2.10,MacIntel,60,IwAR0CH4BeV3CdePqQ01FuYgdznempy-L1P1roCr9QghNFcAZrNjVRaMw7T_E,,,,,1,,0,42,42,34,1,N,none,,,,,,,,,,,,,,
,,,,,,,,,,,,,,,wro73,001,,2023-11-09_08h39.43.565,Trial go no go,2020.2.10,MacIntel,60,IwAR0CH4BeV3CdePqQ01FuYgdznempy-L1P1roCr9QghNFcAZrNjVRaMw7T_E,,,,space,1,0.2773,0,43,43,41,1,X,space,,,,,,,,,,,,,,
,,,,,,,,,,,,,,,wro73,001,,2023-11-09_08h39.43.565,Trial go no go,2020.2.10,MacIntel,60,IwAR0CH4BeV3CdePqQ01FuYgdznempy-L1P1roCr9QghNFcAZrNjVRaMw7T_E,,,,space,1,0.5642,0,44,44,5,1,X,space,,,,,,,,,,,,,,
,,,,,,,,,,,,,,,wro73,001,,2023-11-09_08h39.43.565,Trial go no go,2020.2.10,MacIntel,60,IwAR0CH4BeV3CdePqQ01FuYgdznempy-L1P1roCr9QghNFcAZrNjVRaMw7T_E,,,,space,1,0.4181,0,45,45,3,1,X,space,,,,,,,,,,,,,,
,,,,,,,,,,,,,,,wro73,001,,2023-11-09_08h39.43.565,Trial go no go,2020.2.10,MacIntel,60,IwAR0CH4BeV3CdePqQ01FuYgdznempy-L1P1roCr9QghNFcAZrNjVRaMw7T_E,,,,space,1,0.3512,0,46,46,26,1,X,space,,,,,,,,,,,,,,
,,,,,,,,,,,,,,,wro73,001,,2023-11-09_08h39.43.565,Trial go no go,2020.2.10,MacIntel,60,IwAR0CH4BeV3CdePqQ01FuYgdznempy-L1P1roCr9QghNFcAZrNjVRaMw7T_E,,,,space,1,0.3364,0,47,47,42,1,X,space,,,,,,,,,,,,,,
,,,,,,,,,,,,,,,wro73,001,,2023-11-09_08h39.43.565,Trial go no go,2020.2.10,MacIntel,60,IwAR0CH4BeV3CdePqQ01FuYgdznempy-L1P1roCr9QghNFcAZrNjVRaMw7T_E,,,,space,1,0.3376,0,48,48,32,1,X,space,,,,,,,,,,,,,,
,,,,,,,,,,,,,,,wro73,001,,2023-11-09_08h39.43.565,Trial go no go,2020.2.10,MacIntel,60,IwAR0CH4BeV3CdePqQ01FuYgdznempy-L1P1roCr9QghNFcAZrNjVRaMw7T_E,,,,space,1,0.3678,0,49,49,13,1,X,space,,,,,,,,,,,,,,
,,,,,,,,,,,,,,,wro73,001,,2023-11-09_08h39.43.565,Trial go no go,2020.2.10,MacIntel,60,IwAR0CH4BeV3CdePqQ01FuYgdznempy-L1P1roCr9QghNFcAZrNjVRaMw7T_E,,,,,,,,,,,,,,z,13.2685,,0,0,0,0,31,1,L,space,,,
,,,,,,,,,,,,,,,wro73,001,,2023-11-09_08h39.43.565,Trial go no go,2020.2.10,MacIntel,60,IwAR0CH4BeV3CdePqQ01FuYgdznempy-L1P1roCr9QghNFcAZrNjVRaMw7T_E,,,,,,,,,,,,,,,,,0,0,1,1,32,1,Z,space,,,
,,,,,,,,,,,,,,,wro73,001,,2023-11-09_08h39.43.565,Trial go no go,2020.2.10,MacIntel,60,IwAR0CH4BeV3CdePqQ01FuYgdznempy-L1P1roCr9QghNFcAZrNjVRaMw7T_E,,,,,,,,,,,,,,,,,0,0,2,2,33,1,V,space,,,
,,,,,,,,,,,,,,,wro73,001,,2023-11-09_08h39.43.565,Trial go no go,2020.2.10,MacIntel,60,IwAR0CH4BeV3CdePqQ01FuYgdznempy-L1P1roCr9QghNFcAZrNjVRaMw7T_E,,,,,,,,,,,,,,,,space,1,0,3,3,13,1,Z,space,0.427,,
,,,,,,,,,,,,,,,wro73,001,,2023-11-09_08h39.43.565,Trial go no go,2020.2.10,MacIntel,60,IwAR0CH4BeV3CdePqQ01FuYgdznempy-L1P1roCr9QghNFcAZrNjVRaMw7T_E,,,,,,,,,,,,,,,,,1,0,4,4,4,1,X,none,,,
,,,,,,,,,,,,,,,wro73,001,,2023-11-09_08h39.43.565,Trial go no go,2020.2.10,MacIntel,60,IwAR0CH4BeV3CdePqQ01FuYgdznempy-L1P1roCr9QghNFcAZrNjVRaMw7T_E,,,,,,,,,,,,,,,,space,1,0,5,5,26,1,A,space,0.3624,,
,,,,,,,,,,,,,,,wro73,001,,2023-11-09_08h39.43.565,Trial go no go,2020.2.10,MacIntel,60,IwAR0CH4BeV3CdePqQ01FuYgdznempy-L1P1roCr9QghNFcAZrNjVRaMw7T_E,,,,,,,,,,,,,,,,space,1,0,6,6,36,1,M,space,0.4109,,
,,,,,,,,,,,,,,,wro73,001,,2023-11-09_08h39.43.565,Trial go no go,2020.2.10,MacIntel,60,IwAR0CH4BeV3CdePqQ01FuYgdznempy-L1P1roCr9QghNFcAZrNjVRaMw7T_E,,,,,,,,,,,,,,,,space,1,0,7,7,0,1,W,space,0.4465,,
,,,,,,,,,,,,,,,wro73,001,,2023-11-09_08h39.43.565,Trial go no go,2020.2.10,MacIntel,60,IwAR0CH4BeV3CdePqQ01FuYgdznempy-L1P1roCr9QghNFcAZrNjVRaMw7T_E,,,,,,,,,,,,,,,,space,1,0,8,8,23,1,Y,space,0.431,,
,,,,,,,,,,,,,,,wro73,001,,2023-11-09_08h39.43.565,Trial go no go,2020.2.10,MacIntel,60,IwAR0CH4BeV3CdePqQ01FuYgdznempy-L1P1roCr9QghNFcAZrNjVRaMw7T_E,,,,,,,,,,,,,,,,space,1,0,9,9,41,1,T,space,0.3097,,
,,,,,,,,,,,,,,,wro73,001,,2023-11-09_08h39.43.565,Trial go no go,2020.2.10,MacIntel,60,IwAR0CH4BeV3CdePqQ01FuYgdznempy-L1P1roCr9QghNFcAZrNjVRaMw7T_E,,,,,,,,,,,,,,,,space,1,0,10,10,25,1,I,space,0.3878,,
,,,,,,,,,,,,,,,wro73,001,,2023-11-09_08h39.43.565,Trial go no go,2020.2.10,MacIntel,60,IwAR0CH4BeV3CdePqQ01FuYgdznempy-L1P1roCr9QghNFcAZrNjVRaMw7T_E,,,,,,,,,,,,,,,,,1,0,11,11,19,1,X,none,,,
,,,,,,,,,,,,,,,wro73,001,,2023-11-09_08h39.43.565,Trial go no go,2020.2.10,MacIntel,60,IwAR0CH4BeV3CdePqQ01FuYgdznempy-L1P1roCr9QghNFcAZrNjVRaMw7T_E,,,,,,,,,,,,,,,,space,1,0,12,12,42,1,Y,space,0.416,,
,,,,,,,,,,,,,,,wro73,001,,2023-11-09_08h39.43.565,Trial go no go,2020.2.10,MacIntel,60,IwAR0CH4BeV3CdePqQ01FuYgdznempy-L1P1roCr9QghNFcAZrNjVRaMw7T_E,,,,,,,,,,,,,,,,space,1,0,13,13,7,1,A,space,0.3958,,
,,,,,,,,,,,,,,,wro73,001,,2023-11-09_08h39.43.565,Trial go no go,2020.2.10,MacIntel,60,IwAR0CH4BeV3CdePqQ01FuYgdznempy-L1P1roCr9QghNFcAZrNjVRaMw7T_E,,,,,,,,,,,,,,,,space,1,0,14,14,20,1,E,space,0.3938,,
,,,,,,,,,,,,,,,wro73,001,,2023-11-09_08h39.43.565,Trial go no go,2020.2.10,MacIntel,60,IwAR0CH4BeV3CdePqQ01FuYgdznempy-L1P1roCr9QghNFcAZrNjVRaMw7T_E,,,,,,,,,,,,,,,,space,1,0,15,15,10,1,H,space,0.3951,,
,,,,,,,,,,,,,,,wro73,001,,2023-11-09_08h39.43.565,Trial go no go,2020.2.10,MacIntel,60,IwAR0CH4BeV3CdePqQ01FuYgdznempy-L1P1roCr9QghNFcAZrNjVRaMw7T_E,,,,,,,,,,,,,,,,,1,0,16,16,34,1,X,none,,,
,,,,,,,,,,,,,,,wro73,001,,2023-11-09_08h39.43.565,Trial go no go,2020.2.10,MacIntel,60,IwAR0CH4BeV3CdePqQ01FuYgdznempy-L1P1roCr9QghNFcAZrNjVRaMw7T_E,,,,,,,,,,,,,,,,space,1,0,17,17,12,1,L,space,0.2812,,
,,,,,,,,,,,,,,,wro73,001,,2023-11-09_08h39.43.565,Trial go no go,2020.2.10,MacIntel,60,IwAR0CH4BeV3CdePqQ01FuYgdznempy-L1P1roCr9QghNFcAZrNjVRaMw7T_E,,,,,,,,,,,,,,,,space,0,0,18,18,29,1,X,none,0.3522,,
,,,,,,,,,,,,,,,wro73,001,,2023-11-09_08h39.43.565,Trial go no go,2020.2.10,MacIntel,60,IwAR0CH4BeV3CdePqQ01FuYgdznempy-L1P1roCr9QghNFcAZrNjVRaMw7T_E,,,,,,,,,,,,,,,,space,1,0,19,19,6,1,I,space,0.3135,,
,,,,,,,,,,,,,,,wro73,001,,2023-11-09_08h39.43.565,Trial go no go,2020.2.10,MacIntel,60,IwAR0CH4BeV3CdePqQ01FuYgdznempy-L1P1roCr9QghNFcAZrNjVRaMw7T_E,,,,,,,,,,,,,,,,space,0,0,20,20,44,1,X,none,0.2971,,
,,,,,,,,,,,,,,,wro73,001,,2023-11-09_08h39.43.565,Trial go no go,2020.2.10,MacIntel,60,IwAR0CH4BeV3CdePqQ01FuYgdznempy-L1P1roCr9QghNFcAZrNjVRaMw7T_E,,,,,,,,,,,,,,,,space,1,0,21,21,28,1,H,space,0.3316,,
,,,,,,,,,,,,,,,wro73,001,,2023-11-09_08h39.43.565,Trial go no go,2020.2.10,MacIntel,60,IwAR0CH4BeV3CdePqQ01FuYgdznempy-L1P1roCr9QghNFcAZrNjVRaMw7T_E,,,,,,,,,,,,,,,,space,1,0,22,22,15,1,V,space,0.428,,
,,,,,,,,,,,,,,,wro73,001,,2023-11-09_08h39.43.565,Trial go no go,2020.2.10,MacIntel,60,IwAR0CH4BeV3CdePqQ01FuYgdznempy-L1P1roCr9QghNFcAZrNjVRaMw7T_E,,,,,,,,,,,,,,,,space,1,0,23,23,40,1,R,space,0.3624,,
,,,,,,,,,,,,,,,wro73,001,,2023-11-09_08h39.43.565,Trial go no go,2020.2.10,MacIntel,60,IwAR0CH4BeV3CdePqQ01FuYgdznempy-L1P1roCr9QghNFcAZrNjVRaMw7T_E,,,,,,,,,,,,,,,,space,1,0,24,24,38,1,E,space,0.3327,,
,,,,,,,,,,,,,,,wro73,001,,2023-11-09_08h39.43.565,Trial go no go,2020.2.10,MacIntel,60,IwAR0CH4BeV3CdePqQ01FuYgdznempy-L1P1roCr9QghNFcAZrNjVRaMw7T_E,,,,,,,,,,,,,,,,space,1,0,25,25,2,1,R,space,0.4303,,
,,,,,,,,,,,,,,,wro73,001,,2023-11-09_08h39.43.565,Trial go no go,2020.2.10,MacIntel,60,IwAR0CH4BeV3CdePqQ01FuYgdznempy-L1P1roCr9QghNFcAZrNjVRaMw7T_E,,,,,,,,,,,,,,,,,1,0,26,26,49,1,X,none,,,
,,,,,,,,,,,,,,,wro73,001,,2023-11-09_08h39.43.565,Trial go no go,2020.2.10,MacIntel,60,IwAR0CH4BeV3CdePqQ01FuYgdznempy-L1P1roCr9QghNFcAZrNjVRaMw7T_E,,,,,,,,,,,,,,,,space,1,0,27,27,5,1,Y,space,0.4014,,
,,,,,,,,,,,,,,,wro73,001,,2023-11-09_08h39.43.565,Trial go no go,2020.2.10,MacIntel,60,IwAR0CH4BeV3CdePqQ01FuYgdznempy-L1P1roCr9QghNFcAZrNjVRaMw7T_E,,,,,,,,,,,,,,,,space,1,0,28,28,45,1,A,space,0.4022,,
,,,,,,,,,,,,,,,wro73,001,,2023-11-09_08h39.43.565,Trial go no go,2020.2.10,MacIntel,60,IwAR0CH4BeV3CdePqQ01FuYgdznempy-L1P1roCr9QghNFcAZrNjVRaMw7T_E,,,,,,,,,,,,,,,,space,1,0,29,29,3,1,T,space,0.4621,,
,,,,,,,,,,,,,,,wro73,001,,2023-11-09_08h39.43.565,Trial go no go,2020.2.10,MacIntel,60,IwAR0CH4BeV3CdePqQ01FuYgdznempy-L1P1roCr9QghNFcAZrNjVRaMw7T_E,,,,,,,,,,,,,,,,space,1,0,30,30,11,1,K,space,0.3972,,
,,,,,,,,,,,,,,,wro73,001,,2023-11-09_08h39.43.565,Trial go no go,2020.2.10,MacIntel,60,IwAR0CH4BeV3CdePqQ01FuYgdznempy-L1P1roCr9QghNFcAZrNjVRaMw7T_E,,,,,,,,,,,,,,,,space,1,0,31,31,16,1,N,space,0.4299,,
,,,,,,,,,,,,,,,wro73,001,,2023-11-09_08h39.43.565,Trial go no go,2020.2.10,MacIntel,60,IwAR0CH4BeV3CdePqQ01FuYgdznempy-L1P1roCr9QghNFcAZrNjVRaMw7T_E,,,,,,,,,,,,,,,,space,1,0,32,32,17,1,M,space,0.3646,,
,,,,,,,,,,,,,,,wro73,001,,2023-11-09_08h39.43.565,Trial go no go,2020.2.10,MacIntel,60,IwAR0CH4BeV3CdePqQ01FuYgdznempy-L1P1roCr9QghNFcAZrNjVRaMw7T_E,,,,,,,,,,,,,,,,space,1,0,33,33,35,1,N,space,0.3469,,
,,,,,,,,,,,,,,,wro73,001,,2023-11-09_08h39.43.565,Trial go no go,2020.2.10,MacIntel,60,IwAR0CH4BeV3CdePqQ01FuYgdznempy-L1P1roCr9QghNFcAZrNjVRaMw7T_E,,,,,,,,,,,,,,,,space,1,0,34,34,22,1,T,space,0.3933,,
,,,,,,,,,,,,,,,wro73,001,,2023-11-09_08h39.43.565,Trial go no go,2020.2.10,MacIntel,60,IwAR0CH4BeV3CdePqQ01FuYgdznempy-L1P1roCr9QghNFcAZrNjVRaMw7T_E,,,,,,,,,,,,,,,,space,1,0,35,35,1,1,E,space,0.4465,,
,,,,,,,,,,,,,,,wro73,001,,2023-11-09_08h39.43.565,Trial go no go,2020.2.10,MacIntel,60,IwAR0CH4BeV3CdePqQ01FuYgdznempy-L1P1roCr9QghNFcAZrNjVRaMw7T_E,,,,,,,,,,,,,,,,,1,0,36,36,14,1,X,none,,,
,,,,,,,,,,,,,,,wro73,001,,2023-11-09_08h39.43.565,Trial go no go,2020.2.10,MacIntel,60,IwAR0CH4BeV3CdePqQ01FuYgdznempy-L1P1roCr9QghNFcAZrNjVRaMw7T_E,,,,,,,,,,,,,,,,,1,0,37,37,39,1,X,none,,,
,,,,,,,,,,,,,,,wro73,001,,2023-11-09_08h39.43.565,Trial go no go,2020.2.10,MacIntel,60,IwAR0CH4BeV3CdePqQ01FuYgdznempy-L1P1roCr9QghNFcAZrNjVRaMw7T_E,,,,,,,,,,,,,,,,space,1,0,38,38,8,1,F,space,0.384,,
,,,,,,,,,,,,,,,wro73,001,,2023-11-09_08h39.43.565,Trial go no go,2020.2.10,MacIntel,60,IwAR0CH4BeV3CdePqQ01FuYgdznempy-L1P1roCr9QghNFcAZrNjVRaMw7T_E,,,,,,,,,,,,,,,,space,1,0,39,39,37,1,W,space,0.412,,
,,,,,,,,,,,,,,,wro73,001,,2023-11-09_08h39.43.565,Trial go no go,2020.2.10,MacIntel,60,IwAR0CH4BeV3CdePqQ01FuYgdznempy-L1P1roCr9QghNFcAZrNjVRaMw7T_E,,,,,,,,,,,,,,,,space,0,0,40,40,9,1,X,none,0.3971,,
,,,,,,,,,,,,,,,wro73,001,,2023-11-09_08h39.43.565,Trial go no go,2020.2.10,MacIntel,60,IwAR0CH4BeV3CdePqQ01FuYgdznempy-L1P1roCr9QghNFcAZrNjVRaMw7T_E,,,,,,,,,,,,,,,,space,0,0,41,41,24,1,X,none,0.334,,
,,,,,,,,,,,,,,,wro73,001,,2023-11-09_08h39.43.565,Trial go no go,2020.2.10,MacIntel,60,IwAR0CH4BeV3CdePqQ01FuYgdznempy-L1P1roCr9QghNFcAZrNjVRaMw7T_E,,,,,,,,,,,,,,,,space,1,0,42,42,48,1,K,space,0.4439,,
,,,,,,,,,,,,,,,wro73,001,,2023-11-09_08h39.43.565,Trial go no go,2020.2.10,MacIntel,60,IwAR0CH4BeV3CdePqQ01FuYgdznempy-L1P1roCr9QghNFcAZrNjVRaMw7T_E,,,,,,,,,,,,,,,,space,1,0,43,43,30,1,K,space,0.4545,,
,,,,,,,,,,,,,,,wro73,001,,2023-11-09_08h39.43.565,Trial go no go,2020.2.10,MacIntel,60,IwAR0CH4BeV3CdePqQ01FuYgdznempy-L1P1roCr9QghNFcAZrNjVRaMw7T_E,,,,,,,,,,,,,,,,space,1,0,44,44,21,1,R,space,0.4125,,
,,,,,,,,,,,,,,,wro73,001,,2023-11-09_08h39.43.565,Trial go no go,2020.2.10,MacIntel,60,IwAR0CH4BeV3CdePqQ01FuYgdznempy-L1P1roCr9QghNFcAZrNjVRaMw7T_E,,,,,,,,,,,,,,,,space,1,0,45,45,18,1,W,space,0.4521,,
,,,,,,,,,,,,,,,wro73,001,,2023-11-09_08h39.43.565,Trial go no go,2020.2.10,MacIntel,60,IwAR0CH4BeV3CdePqQ01FuYgdznempy-L1P1roCr9QghNFcAZrNjVRaMw7T_E,,,,,,,,,,,,,,,,space,1,0,46,46,27,1,F,space,0.3957,,
,,,,,,,,,,,,,,,wro73,001,,2023-11-09_08h39.43.565,Trial go no go,2020.2.10,MacIntel,60,IwAR0CH4BeV3CdePqQ01FuYgdznempy-L1P1roCr9QghNFcAZrNjVRaMw7T_E,,,,,,,,,,,,,,,,space,1,0,47,47,47,1,H,space,0.3946,,
,,,,,,,,,,,,,,,wro73,001,,2023-11-09_08h39.43.565,Trial go no go,2020.2.10,MacIntel,60,IwAR0CH4BeV3CdePqQ01FuYgdznempy-L1P1roCr9QghNFcAZrNjVRaMw7T_E,,,,,,,,,,,,,,,,space,1,0,48,48,43,1,I,space,0.4613,,
,,,,,,,,,,,,,,,wro73,001,,2023-11-09_08h39.43.565,Trial go no go,2020.2.10,MacIntel,60,IwAR0CH4BeV3CdePqQ01FuYgdznempy-L1P1roCr9QghNFcAZrNjVRaMw7T_E,,,,,,,,,,,,,,,,space,1,0,49,49,46,1,F,space,0.5598,,
,,,,,,,,,,,,,,,wro73,001,,2023-11-09_08h39.43.565,Trial go no go,2020.2.10,MacIntel,60,IwAR0CH4BeV3CdePqQ01FuYgdznempy-L1P1roCr9QghNFcAZrNjVRaMw7T_E,,,,,,,,,,,,,,,,,,,,,,,,,,space,26.767
