resp_Welcome.keys,resp_Welcome.rt,resp_Instr_Intro.keys,resp_Instr_Intro.rt,resp_Instr_Prac1.keys,resp_Instr_Prac1.rt,resp_trial_Prac1.keys,resp_trial_Prac1.corr,prac_trials.thisRepN,prac_trials.thisTrialN,prac_trials.thisN,prac_trials.thisIndex,prac_trials.ran,stimulus_prac1,corrAns_prac1,participant,session,indywidualny kod,date,expName,psychopyVersion,OS,frameRate,resp_trial_Prac1.rt,resp_Instr_Test1.keys,resp_Instr_Test1.rt,resp_trial_Test1.keys,resp_trial_Test1.corr,resp_trial_Test1.rt,test1trial.thisRepN,test1trial.thisTrialN,test1trial.thisN,test1trial.thisIndex,test1trial.ran,stimulus_test1,corrAns_test1,resp_Instr_Test2.keys,resp_Instr_Test2.rt,key_resp_Test2.keys,key_resp_Test2.corr,test2trial.thisRepN,test2trial.thisTrialN,test2trial.thisN,test2trial.thisIndex,test2trial.ran,stimulus_test2,corrAns_test2,key_resp_Test2.rt,resp_theEnd.keys,resp_theEnd.rt
space,12.258,space,27.226,space,15.359,,1,0,0,0,9,1,V,none,WWA103,001,WWA103,2024-01-24_12h48.08.068,Trial go no go,2020.2.10,MacIntel,60,,,,,,,,,,,,,,,,,,,,,,,,,,,
,,,,,,,1,0,1,1,14,1,K,none,WWA103,001,WWA103,2024-01-24_12h48.08.068,Trial go no go,2020.2.10,MacIntel,60,,,,,,,,,,,,,,,,,,,,,,,,,,,
,,,,,,space,1,0,2,2,5,1,X,space,WWA103,001,WWA103,2024-01-24_12h48.08.068,Trial go no go,2020.2.10,MacIntel,60,0.695,,,,,,,,,,,,,,,,,,,,,,,,,,
,,,,,,space,1,0,3,3,11,1,X,space,WWA103,001,WWA103,2024-01-24_12h48.08.068,Trial go no go,2020.2.10,MacIntel,60,0.509,,,,,,,,,,,,,,,,,,,,,,,,,,
,,,,,,space,1,0,4,4,10,1,X,space,WWA103,001,WWA103,2024-01-24_12h48.08.068,Trial go no go,2020.2.10,MacIntel,60,0.539,,,,,,,,,,,,,,,,,,,,,,,,,,
,,,,,,space,1,0,5,5,0,1,X,space,WWA103,001,WWA103,2024-01-24_12h48.08.068,Trial go no go,2020.2.10,MacIntel,60,0.538,,,,,,,,,,,,,,,,,,,,,,,,,,
,,,,,,space,1,0,6,6,12,1,X,space,WWA103,001,WWA103,2024-01-24_12h48.08.068,Trial go no go,2020.2.10,MacIntel,60,0.501,,,,,,,,,,,,,,,,,,,,,,,,,,
,,,,,,space,1,0,7,7,1,1,X,space,WWA103,001,WWA103,2024-01-24_12h48.08.068,Trial go no go,2020.2.10,MacIntel,60,0.401,,,,,,,,,,,,,,,,,,,,,,,,,,
,,,,,,space,1,0,8,8,6,1,X,space,WWA103,001,WWA103,2024-01-24_12h48.08.068,Trial go no go,2020.2.10,MacIntel,60,0.443,,,,,,,,,,,,,,,,,,,,,,,,,,
,,,,,,space,1,0,9,9,7,1,X,space,WWA103,001,WWA103,2024-01-24_12h48.08.068,Trial go no go,2020.2.10,MacIntel,60,0.385,,,,,,,,,,,,,,,,,,,,,,,,,,
,,,,,,space,1,0,10,10,2,1,X,space,WWA103,001,WWA103,2024-01-24_12h48.08.068,Trial go no go,2020.2.10,MacIntel,60,0.486,,,,,,,,,,,,,,,,,,,,,,,,,,
,,,,,,space,1,0,11,11,8,1,X,space,WWA103,001,WWA103,2024-01-24_12h48.08.068,Trial go no go,2020.2.10,MacIntel,60,0.57,,,,,,,,,,,,,,,,,,,,,,,,,,
,,,,,,space,1,0,12,12,13,1,X,space,WWA103,001,WWA103,2024-01-24_12h48.08.068,Trial go no go,2020.2.10,MacIntel,60,0.377,,,,,,,,,,,,,,,,,,,,,,,,,,
,,,,,,space,1,0,13,13,3,1,X,space,WWA103,001,WWA103,2024-01-24_12h48.08.068,Trial go no go,2020.2.10,MacIntel,60,0.418,,,,,,,,,,,,,,,,,,,,,,,,,,
,,,,,,,1,0,14,14,4,1,W,none,WWA103,001,WWA103,2024-01-24_12h48.08.068,Trial go no go,2020.2.10,MacIntel,60,,,,,,,,,,,,,,,,,,,,,,,,,,,
,,,,,,,,,,,,,,,WWA103,001,WWA103,2024-01-24_12h48.08.068,Trial go no go,2020.2.10,MacIntel,60,,space,3.941,space,1,0.758,0,0,0,40,1,X,space,,,,,,,,,,,,,,
,,,,,,,,,,,,,,,WWA103,001,WWA103,2024-01-24_12h48.08.068,Trial go no go,2020.2.10,MacIntel,60,,,,space,1,0.37,0,1,1,33,1,X,space,,,,,,,,,,,,,,
,,,,,,,,,,,,,,,WWA103,001,WWA103,2024-01-24_12h48.08.068,Trial go no go,2020.2.10,MacIntel,60,,,,space,1,0.277,0,2,2,0,1,X,space,,,,,,,,,,,,,,
,,,,,,,,,,,,,,,WWA103,001,WWA103,2024-01-24_12h48.08.068,Trial go no go,2020.2.10,MacIntel,60,,,,space,1,0.29,0,3,3,37,1,X,space,,,,,,,,,,,,,,
,,,,,,,,,,,,,,,WWA103,001,WWA103,2024-01-24_12h48.08.068,Trial go no go,2020.2.10,MacIntel,60,,,,space,1,0.287,0,4,4,1,1,X,space,,,,,,,,,,,,,,
,,,,,,,,,,,,,,,WWA103,001,WWA103,2024-01-24_12h48.08.068,Trial go no go,2020.2.10,MacIntel,60,,,,space,1,0.255,0,5,5,8,1,X,space,,,,,,,,,,,,,,
,,,,,,,,,,,,,,,WWA103,001,WWA103,2024-01-24_12h48.08.068,Trial go no go,2020.2.10,MacIntel,60,,,,space,1,0.273,0,6,6,13,1,X,space,,,,,,,,,,,,,,
,,,,,,,,,,,,,,,WWA103,001,WWA103,2024-01-24_12h48.08.068,Trial go no go,2020.2.10,MacIntel,60,,,,space,1,0.259,0,7,7,3,1,X,space,,,,,,,,,,,,,,
,,,,,,,,,,,,,,,WWA103,001,WWA103,2024-01-24_12h48.08.068,Trial go no go,2020.2.10,MacIntel,60,,,,space,1,0.277,0,8,8,35,1,X,space,,,,,,,,,,,,,,
,,,,,,,,,,,,,,,WWA103,001,WWA103,2024-01-24_12h48.08.068,Trial go no go,2020.2.10,MacIntel,60,,,,space,0,0.277,0,9,9,24,1,H,none,,,,,,,,,,,,,,
,,,,,,,,,,,,,,,WWA103,001,WWA103,2024-01-24_12h48.08.068,Trial go no go,2020.2.10,MacIntel,60,,,,space,1,0.488,0,10,10,16,1,X,space,,,,,,,,,,,,,,
,,,,,,,,,,,,,,,WWA103,001,WWA103,2024-01-24_12h48.08.068,Trial go no go,2020.2.10,MacIntel,60,,,,space,1,0.4,0,11,11,10,1,X,space,,,,,,,,,,,,,,
,,,,,,,,,,,,,,,WWA103,001,WWA103,2024-01-24_12h48.08.068,Trial go no go,2020.2.10,MacIntel,60,,,,space,1,0.317,0,12,12,17,1,X,space,,,,,,,,,,,,,,
,,,,,,,,,,,,,,,WWA103,001,WWA103,2024-01-24_12h48.08.068,Trial go no go,2020.2.10,MacIntel,60,,,,space,1,0.35,0,13,13,22,1,X,space,,,,,,,,,,,,,,
,,,,,,,,,,,,,,,WWA103,001,WWA103,2024-01-24_12h48.08.068,Trial go no go,2020.2.10,MacIntel,60,,,,space,1,0.289,0,14,14,38,1,X,space,,,,,,,,,,,,,,
,,,,,,,,,,,,,,,WWA103,001,WWA103,2024-01-24_12h48.08.068,Trial go no go,2020.2.10,MacIntel,60,,,,space,1,0.292,0,15,15,45,1,X,space,,,,,,,,,,,,,,
,,,,,,,,,,,,,,,WWA103,001,WWA103,2024-01-24_12h48.08.068,Trial go no go,2020.2.10,MacIntel,60,,,,space,1,0.293,0,16,16,42,1,X,space,,,,,,,,,,,,,,
,,,,,,,,,,,,,,,WWA103,001,WWA103,2024-01-24_12h48.08.068,Trial go no go,2020.2.10,MacIntel,60,,,,space,1,0.276,0,17,17,7,1,X,space,,,,,,,,,,,,,,
,,,,,,,,,,,,,,,WWA103,001,WWA103,2024-01-24_12h48.08.068,Trial go no go,2020.2.10,MacIntel,60,,,,,1,,0,18,18,34,1,N,none,,,,,,,,,,,,,,
,,,,,,,,,,,,,,,WWA103,001,WWA103,2024-01-24_12h48.08.068,Trial go no go,2020.2.10,MacIntel,60,,,,space,1,0.296,0,19,19,32,1,X,space,,,,,,,,,,,,,,
,,,,,,,,,,,,,,,WWA103,001,WWA103,2024-01-24_12h48.08.068,Trial go no go,2020.2.10,MacIntel,60,,,,space,0,0.448,0,20,20,29,1,T,none,,,,,,,,,,,,,,
,,,,,,,,,,,,,,,WWA103,001,WWA103,2024-01-24_12h48.08.068,Trial go no go,2020.2.10,MacIntel,60,,,,space,1,0.495,0,21,21,28,1,X,space,,,,,,,,,,,,,,
,,,,,,,,,,,,,,,WWA103,001,WWA103,2024-01-24_12h48.08.068,Trial go no go,2020.2.10,MacIntel,60,,,,,1,,0,22,22,14,1,Y,none,,,,,,,,,,,,,,
,,,,,,,,,,,,,,,WWA103,001,WWA103,2024-01-24_12h48.08.068,Trial go no go,2020.2.10,MacIntel,60,,,,space,1,0.445,0,23,23,31,1,X,space,,,,,,,,,,,,,,
,,,,,,,,,,,,,,,WWA103,001,WWA103,2024-01-24_12h48.08.068,Trial go no go,2020.2.10,MacIntel,60,,,,,1,,0,24,24,19,1,K,none,,,,,,,,,,,,,,
,,,,,,,,,,,,,,,WWA103,001,WWA103,2024-01-24_12h48.08.068,Trial go no go,2020.2.10,MacIntel,60,,,,space,1,0.346,0,25,25,20,1,X,space,,,,,,,,,,,,,,
,,,,,,,,,,,,,,,WWA103,001,WWA103,2024-01-24_12h48.08.068,Trial go no go,2020.2.10,MacIntel,60,,,,space,1,0.454,0,26,26,12,1,X,space,,,,,,,,,,,,,,
,,,,,,,,,,,,,,,WWA103,001,WWA103,2024-01-24_12h48.08.068,Trial go no go,2020.2.10,MacIntel,60,,,,space,1,0.419,0,27,27,46,1,X,space,,,,,,,,,,,,,,
,,,,,,,,,,,,,,,WWA103,001,WWA103,2024-01-24_12h48.08.068,Trial go no go,2020.2.10,MacIntel,60,,,,space,1,0.476,0,28,28,11,1,X,space,,,,,,,,,,,,,,
,,,,,,,,,,,,,,,WWA103,001,WWA103,2024-01-24_12h48.08.068,Trial go no go,2020.2.10,MacIntel,60,,,,space,1,0.434,0,29,29,47,1,X,space,,,,,,,,,,,,,,
,,,,,,,,,,,,,,,WWA103,001,WWA103,2024-01-24_12h48.08.068,Trial go no go,2020.2.10,MacIntel,60,,,,space,1,0.483,0,30,30,15,1,X,space,,,,,,,,,,,,,,
,,,,,,,,,,,,,,,WWA103,001,WWA103,2024-01-24_12h48.08.068,Trial go no go,2020.2.10,MacIntel,60,,,,space,1,0.451,0,31,31,2,1,X,space,,,,,,,,,,,,,,
,,,,,,,,,,,,,,,WWA103,001,WWA103,2024-01-24_12h48.08.068,Trial go no go,2020.2.10,MacIntel,60,,,,,1,,0,32,32,49,1,E,none,,,,,,,,,,,,,,
,,,,,,,,,,,,,,,WWA103,001,WWA103,2024-01-24_12h48.08.068,Trial go no go,2020.2.10,MacIntel,60,,,,space,1,0.368,0,33,33,18,1,X,space,,,,,,,,,,,,,,
,,,,,,,,,,,,,,,WWA103,001,WWA103,2024-01-24_12h48.08.068,Trial go no go,2020.2.10,MacIntel,60,,,,space,1,0.389,0,34,34,43,1,X,space,,,,,,,,,,,,,,
,,,,,,,,,,,,,,,WWA103,001,WWA103,2024-01-24_12h48.08.068,Trial go no go,2020.2.10,MacIntel,60,,,,,1,,0,35,35,39,1,M,none,,,,,,,,,,,,,,
,,,,,,,,,,,,,,,WWA103,001,WWA103,2024-01-24_12h48.08.068,Trial go no go,2020.2.10,MacIntel,60,,,,space,1,0.266,0,36,36,36,1,X,space,,,,,,,,,,,,,,
,,,,,,,,,,,,,,,WWA103,001,WWA103,2024-01-24_12h48.08.068,Trial go no go,2020.2.10,MacIntel,60,,,,,1,,0,37,37,4,1,V,none,,,,,,,,,,,,,,
,,,,,,,,,,,,,,,WWA103,001,WWA103,2024-01-24_12h48.08.068,Trial go no go,2020.2.10,MacIntel,60,,,,,1,,0,38,38,44,1,F,none,,,,,,,,,,,,,,
,,,,,,,,,,,,,,,WWA103,001,WWA103,2024-01-24_12h48.08.068,Trial go no go,2020.2.10,MacIntel,60,,,,space,1,0.378,0,39,39,41,1,X,space,,,,,,,,,,,,,,
,,,,,,,,,,,,,,,WWA103,001,WWA103,2024-01-24_12h48.08.068,Trial go no go,2020.2.10,MacIntel,60,,,,space,1,0.5,0,40,40,26,1,X,space,,,,,,,,,,,,,,
,,,,,,,,,,,,,,,WWA103,001,WWA103,2024-01-24_12h48.08.068,Trial go no go,2020.2.10,MacIntel,60,,,,space,1,0.35,0,41,41,23,1,X,space,,,,,,,,,,,,,,
,,,,,,,,,,,,,,,WWA103,001,WWA103,2024-01-24_12h48.08.068,Trial go no go,2020.2.10,MacIntel,60,,,,space,1,0.335,0,42,42,25,1,X,space,,,,,,,,,,,,,,
,,,,,,,,,,,,,,,WWA103,001,WWA103,2024-01-24_12h48.08.068,Trial go no go,2020.2.10,MacIntel,60,,,,,1,,0,43,43,9,1,W,none,,,,,,,,,,,,,,
,,,,,,,,,,,,,,,WWA103,001,WWA103,2024-01-24_12h48.08.068,Trial go no go,2020.2.10,MacIntel,60,,,,space,1,0.399,0,44,44,48,1,X,space,,,,,,,,,,,,,,
,,,,,,,,,,,,,,,WWA103,001,WWA103,2024-01-24_12h48.08.068,Trial go no go,2020.2.10,MacIntel,60,,,,space,1,0.42,0,45,45,5,1,X,space,,,,,,,,,,,,,,
,,,,,,,,,,,,,,,WWA103,001,WWA103,2024-01-24_12h48.08.068,Trial go no go,2020.2.10,MacIntel,60,,,,space,1,0.329,0,46,46,21,1,X,space,,,,,,,,,,,,,,
,,,,,,,,,,,,,,,WWA103,001,WWA103,2024-01-24_12h48.08.068,Trial go no go,2020.2.10,MacIntel,60,,,,space,1,0.343,0,47,47,6,1,X,space,,,,,,,,,,,,,,
,,,,,,,,,,,,,,,WWA103,001,WWA103,2024-01-24_12h48.08.068,Trial go no go,2020.2.10,MacIntel,60,,,,space,1,0.394,0,48,48,27,1,X,space,,,,,,,,,,,,,,
,,,,,,,,,,,,,,,WWA103,001,WWA103,2024-01-24_12h48.08.068,Trial go no go,2020.2.10,MacIntel,60,,,,space,1,0.318,0,49,49,30,1,X,space,,,,,,,,,,,,,,
,,,,,,,,,,,,,,,WWA103,001,WWA103,2024-01-24_12h48.08.068,Trial go no go,2020.2.10,MacIntel,60,,,,,,,,,,,,,,z,26.539,,1,0,0,0,24,1,X,none,,,
,,,,,,,,,,,,,,,WWA103,001,WWA103,2024-01-24_12h48.08.068,Trial go no go,2020.2.10,MacIntel,60,,,,,,,,,,,,,,,,,1,0,1,1,44,1,X,none,,,
,,,,,,,,,,,,,,,WWA103,001,WWA103,2024-01-24_12h48.08.068,Trial go no go,2020.2.10,MacIntel,60,,,,,,,,,,,,,,,,space,1,0,2,2,33,1,V,space,0.448,,
,,,,,,,,,,,,,,,WWA103,001,WWA103,2024-01-24_12h48.08.068,Trial go no go,2020.2.10,MacIntel,60,,,,,,,,,,,,,,,,,1,0,3,3,34,1,X,none,,,
,,,,,,,,,,,,,,,WWA103,001,WWA103,2024-01-24_12h48.08.068,Trial go no go,2020.2.10,MacIntel,60,,,,,,,,,,,,,,,,space,1,0,4,4,37,1,W,space,0.397,,
,,,,,,,,,,,,,,,WWA103,001,WWA103,2024-01-24_12h48.08.068,Trial go no go,2020.2.10,MacIntel,60,,,,,,,,,,,,,,,,space,1,0,5,5,17,1,M,space,0.455,,
,,,,,,,,,,,,,,,WWA103,001,WWA103,2024-01-24_12h48.08.068,Trial go no go,2020.2.10,MacIntel,60,,,,,,,,,,,,,,,,space,1,0,6,6,42,1,Y,space,0.586,,
,,,,,,,,,,,,,,,WWA103,001,WWA103,2024-01-24_12h48.08.068,Trial go no go,2020.2.10,MacIntel,60,,,,,,,,,,,,,,,,,1,0,7,7,14,1,X,none,,,
,,,,,,,,,,,,,,,WWA103,001,WWA103,2024-01-24_12h48.08.068,Trial go no go,2020.2.10,MacIntel,60,,,,,,,,,,,,,,,,space,1,0,8,8,40,1,R,space,0.385,,
,,,,,,,,,,,,,,,WWA103,001,WWA103,2024-01-24_12h48.08.068,Trial go no go,2020.2.10,MacIntel,60,,,,,,,,,,,,,,,,space,1,0,9,9,46,1,F,space,0.337,,
,,,,,,,,,,,,,,,WWA103,001,WWA103,2024-01-24_12h48.08.068,Trial go no go,2020.2.10,MacIntel,60,,,,,,,,,,,,,,,,space,1,0,10,10,6,1,I,space,0.499,,
,,,,,,,,,,,,,,,WWA103,001,WWA103,2024-01-24_12h48.08.068,Trial go no go,2020.2.10,MacIntel,60,,,,,,,,,,,,,,,,,1,0,11,11,4,1,X,none,,,
,,,,,,,,,,,,,,,WWA103,001,WWA103,2024-01-24_12h48.08.068,Trial go no go,2020.2.10,MacIntel,60,,,,,,,,,,,,,,,,space,1,0,12,12,35,1,N,space,0.364,,
,,,,,,,,,,,,,,,WWA103,001,WWA103,2024-01-24_12h48.08.068,Trial go no go,2020.2.10,MacIntel,60,,,,,,,,,,,,,,,,space,1,0,13,13,2,1,R,space,0.647,,
,,,,,,,,,,,,,,,WWA103,001,WWA103,2024-01-24_12h48.08.068,Trial go no go,2020.2.10,MacIntel,60,,,,,,,,,,,,,,,,space,1,0,14,14,23,1,Y,space,0.472,,
,,,,,,,,,,,,,,,WWA103,001,WWA103,2024-01-24_12h48.08.068,Trial go no go,2020.2.10,MacIntel,60,,,,,,,,,,,,,,,,space,1,0,15,15,41,1,T,space,0.339,,
,,,,,,,,,,,,,,,WWA103,001,WWA103,2024-01-24_12h48.08.068,Trial go no go,2020.2.10,MacIntel,60,,,,,,,,,,,,,,,,space,1,0,16,16,18,1,W,space,0.433,,
,,,,,,,,,,,,,,,WWA103,001,WWA103,2024-01-24_12h48.08.068,Trial go no go,2020.2.10,MacIntel,60,,,,,,,,,,,,,,,,space,1,0,17,17,32,1,Z,space,0.511,,
,,,,,,,,,,,,,,,WWA103,001,WWA103,2024-01-24_12h48.08.068,Trial go no go,2020.2.10,MacIntel,60,,,,,,,,,,,,,,,,space,0,0,18,18,29,1,X,none,0.366,,
,,,,,,,,,,,,,,,WWA103,001,WWA103,2024-01-24_12h48.08.068,Trial go no go,2020.2.10,MacIntel,60,,,,,,,,,,,,,,,,space,1,0,19,19,27,1,F,space,0.368,,
,,,,,,,,,,,,,,,WWA103,001,WWA103,2024-01-24_12h48.08.068,Trial go no go,2020.2.10,MacIntel,60,,,,,,,,,,,,,,,,space,1,0,20,20,16,1,N,space,0.413,,
,,,,,,,,,,,,,,,WWA103,001,WWA103,2024-01-24_12h48.08.068,Trial go no go,2020.2.10,MacIntel,60,,,,,,,,,,,,,,,,space,1,0,21,21,0,1,W,space,0.549,,
,,,,,,,,,,,,,,,WWA103,001,WWA103,2024-01-24_12h48.08.068,Trial go no go,2020.2.10,MacIntel,60,,,,,,,,,,,,,,,,space,1,0,22,22,20,1,E,space,0.397,,
,,,,,,,,,,,,,,,WWA103,001,WWA103,2024-01-24_12h48.08.068,Trial go no go,2020.2.10,MacIntel,60,,,,,,,,,,,,,,,,space,1,0,23,23,26,1,A,space,0.438,,
,,,,,,,,,,,,,,,WWA103,001,WWA103,2024-01-24_12h48.08.068,Trial go no go,2020.2.10,MacIntel,60,,,,,,,,,,,,,,,,space,1,0,24,24,22,1,T,space,0.351,,
,,,,,,,,,,,,,,,WWA103,001,WWA103,2024-01-24_12h48.08.068,Trial go no go,2020.2.10,MacIntel,60,,,,,,,,,,,,,,,,space,1,0,25,25,11,1,K,space,0.38,,
,,,,,,,,,,,,,,,WWA103,001,WWA103,2024-01-24_12h48.08.068,Trial go no go,2020.2.10,MacIntel,60,,,,,,,,,,,,,,,,space,1,0,26,26,5,1,Y,space,0.662,,
,,,,,,,,,,,,,,,WWA103,001,WWA103,2024-01-24_12h48.08.068,Trial go no go,2020.2.10,MacIntel,60,,,,,,,,,,,,,,,,space,1,0,27,27,28,1,H,space,0.385,,
,,,,,,,,,,,,,,,WWA103,001,WWA103,2024-01-24_12h48.08.068,Trial go no go,2020.2.10,MacIntel,60,,,,,,,,,,,,,,,,space,1,0,28,28,30,1,K,space,0.58,,
,,,,,,,,,,,,,,,WWA103,001,WWA103,2024-01-24_12h48.08.068,Trial go no go,2020.2.10,MacIntel,60,,,,,,,,,,,,,,,,space,1,0,29,29,43,1,I,space,0.443,,
,,,,,,,,,,,,,,,WWA103,001,WWA103,2024-01-24_12h48.08.068,Trial go no go,2020.2.10,MacIntel,60,,,,,,,,,,,,,,,,,1,0,30,30,39,1,X,none,,,
,,,,,,,,,,,,,,,WWA103,001,WWA103,2024-01-24_12h48.08.068,Trial go no go,2020.2.10,MacIntel,60,,,,,,,,,,,,,,,,space,1,0,31,31,10,1,H,space,0.314,,
,,,,,,,,,,,,,,,WWA103,001,WWA103,2024-01-24_12h48.08.068,Trial go no go,2020.2.10,MacIntel,60,,,,,,,,,,,,,,,,space,1,0,32,32,1,1,E,space,0.35,,
,,,,,,,,,,,,,,,WWA103,001,WWA103,2024-01-24_12h48.08.068,Trial go no go,2020.2.10,MacIntel,60,,,,,,,,,,,,,,,,space,1,0,33,33,21,1,R,space,0.329,,
,,,,,,,,,,,,,,,WWA103,001,WWA103,2024-01-24_12h48.08.068,Trial go no go,2020.2.10,MacIntel,60,,,,,,,,,,,,,,,,space,1,0,34,34,36,1,M,space,0.271,,
,,,,,,,,,,,,,,,WWA103,001,WWA103,2024-01-24_12h48.08.068,Trial go no go,2020.2.10,MacIntel,60,,,,,,,,,,,,,,,,space,1,0,35,35,31,1,L,space,0.392,,
,,,,,,,,,,,,,,,WWA103,001,WWA103,2024-01-24_12h48.08.068,Trial go no go,2020.2.10,MacIntel,60,,,,,,,,,,,,,,,,space,1,0,36,36,12,1,L,space,0.304,,
,,,,,,,,,,,,,,,WWA103,001,WWA103,2024-01-24_12h48.08.068,Trial go no go,2020.2.10,MacIntel,60,,,,,,,,,,,,,,,,space,1,0,37,37,38,1,E,space,0.366,,
,,,,,,,,,,,,,,,WWA103,001,WWA103,2024-01-24_12h48.08.068,Trial go no go,2020.2.10,MacIntel,60,,,,,,,,,,,,,,,,space,1,0,38,38,47,1,H,space,0.373,,
,,,,,,,,,,,,,,,WWA103,001,WWA103,2024-01-24_12h48.08.068,Trial go no go,2020.2.10,MacIntel,60,,,,,,,,,,,,,,,,space,0,0,39,39,19,1,X,none,0.317,,
,,,,,,,,,,,,,,,WWA103,001,WWA103,2024-01-24_12h48.08.068,Trial go no go,2020.2.10,MacIntel,60,,,,,,,,,,,,,,,,space,1,0,40,40,45,1,A,space,0.535,,
,,,,,,,,,,,,,,,WWA103,001,WWA103,2024-01-24_12h48.08.068,Trial go no go,2020.2.10,MacIntel,60,,,,,,,,,,,,,,,,,1,0,41,41,49,1,X,none,,,
,,,,,,,,,,,,,,,WWA103,001,WWA103,2024-01-24_12h48.08.068,Trial go no go,2020.2.10,MacIntel,60,,,,,,,,,,,,,,,,space,1,0,42,42,3,1,T,space,0.362,,
,,,,,,,,,,,,,,,WWA103,001,WWA103,2024-01-24_12h48.08.068,Trial go no go,2020.2.10,MacIntel,60,,,,,,,,,,,,,,,,space,1,0,43,43,15,1,V,space,0.362,,
,,,,,,,,,,,,,,,WWA103,001,WWA103,2024-01-24_12h48.08.068,Trial go no go,2020.2.10,MacIntel,60,,,,,,,,,,,,,,,,space,1,0,44,44,25,1,I,space,0.328,,
,,,,,,,,,,,,,,,WWA103,001,WWA103,2024-01-24_12h48.08.068,Trial go no go,2020.2.10,MacIntel,60,,,,,,,,,,,,,,,,space,1,0,45,45,7,1,A,space,0.423,,
,,,,,,,,,,,,,,,WWA103,001,WWA103,2024-01-24_12h48.08.068,Trial go no go,2020.2.10,MacIntel,60,,,,,,,,,,,,,,,,space,1,0,46,46,8,1,F,space,0.363,,
,,,,,,,,,,,,,,,WWA103,001,WWA103,2024-01-24_12h48.08.068,Trial go no go,2020.2.10,MacIntel,60,,,,,,,,,,,,,,,,space,1,0,47,47,13,1,Z,space,0.451,,
,,,,,,,,,,,,,,,WWA103,001,WWA103,2024-01-24_12h48.08.068,Trial go no go,2020.2.10,MacIntel,60,,,,,,,,,,,,,,,,,1,0,48,48,9,1,X,none,,,
,,,,,,,,,,,,,,,WWA103,001,WWA103,2024-01-24_12h48.08.068,Trial go no go,2020.2.10,MacIntel,60,,,,,,,,,,,,,,,,space,1,0,49,49,48,1,K,space,0.332,,
,,,,,,,,,,,,,,,WWA103,001,WWA103,2024-01-24_12h48.08.068,Trial go no go,2020.2.10,MacIntel,60,,,,,,,,,,,,,,,,,,,,,,,,,,space,148.119
