resp_Welcome.keys,resp_Welcome.rt,resp_Instr_Intro.keys,resp_Instr_Intro.rt,resp_Instr_Prac1.keys,resp_Instr_Prac1.rt,resp_trial_Prac1.keys,resp_trial_Prac1.corr,resp_trial_Prac1.rt,prac_trials.thisRepN,prac_trials.thisTrialN,prac_trials.thisN,prac_trials.thisIndex,prac_trials.ran,stimulus_prac1,corrAns_prac1,participant,session,indywidualny kod,date,expName,psychopyVersion,OS,frameRate,resp_Instr_Test1.keys,resp_Instr_Test1.rt,resp_trial_Test1.keys,resp_trial_Test1.corr,test1trial.thisRepN,test1trial.thisTrialN,test1trial.thisN,test1trial.thisIndex,test1trial.ran,stimulus_test1,corrAns_test1,resp_trial_Test1.rt,resp_Instr_Test2.keys,resp_Instr_Test2.rt,key_resp_Test2.keys,key_resp_Test2.corr,test2trial.thisRepN,test2trial.thisTrialN,test2trial.thisN,test2trial.thisIndex,test2trial.ran,stimulus_test2,corrAns_test2,key_resp_Test2.rt,resp_theEnd.keys,resp_theEnd.rt
space,23.7676,space,17.5045,space,15.2721,space,1,0.4451,0,0,0,8,1,X,space,WWA121,001,WWA121,2024-01-22_11h42.05.947,Trial go no go,2020.2.10,MacIntel,60,,,,,,,,,,,,,,,,,,,,,,,,,,
,,,,,,space,1,0.5559,0,1,1,1,1,X,space,WWA121,001,WWA121,2024-01-22_11h42.05.947,Trial go no go,2020.2.10,MacIntel,60,,,,,,,,,,,,,,,,,,,,,,,,,,
,,,,,,space,1,0.4269,0,2,2,10,1,X,space,WWA121,001,WWA121,2024-01-22_11h42.05.947,Trial go no go,2020.2.10,MacIntel,60,,,,,,,,,,,,,,,,,,,,,,,,,,
,,,,,,,1,,0,3,3,9,1,V,none,WWA121,001,WWA121,2024-01-22_11h42.05.947,Trial go no go,2020.2.10,MacIntel,60,,,,,,,,,,,,,,,,,,,,,,,,,,
,,,,,,space,1,0.5406,0,4,4,0,1,X,space,WWA121,001,WWA121,2024-01-22_11h42.05.947,Trial go no go,2020.2.10,MacIntel,60,,,,,,,,,,,,,,,,,,,,,,,,,,
,,,,,,space,1,0.4768,0,5,5,5,1,X,space,WWA121,001,WWA121,2024-01-22_11h42.05.947,Trial go no go,2020.2.10,MacIntel,60,,,,,,,,,,,,,,,,,,,,,,,,,,
,,,,,,space,1,0.4919,0,6,6,6,1,X,space,WWA121,001,WWA121,2024-01-22_11h42.05.947,Trial go no go,2020.2.10,MacIntel,60,,,,,,,,,,,,,,,,,,,,,,,,,,
,,,,,,space,1,0.4875,0,7,7,2,1,X,space,WWA121,001,WWA121,2024-01-22_11h42.05.947,Trial go no go,2020.2.10,MacIntel,60,,,,,,,,,,,,,,,,,,,,,,,,,,
,,,,,,,1,,0,8,8,14,1,K,none,WWA121,001,WWA121,2024-01-22_11h42.05.947,Trial go no go,2020.2.10,MacIntel,60,,,,,,,,,,,,,,,,,,,,,,,,,,
,,,,,,space,1,0.5215,0,9,9,3,1,X,space,WWA121,001,WWA121,2024-01-22_11h42.05.947,Trial go no go,2020.2.10,MacIntel,60,,,,,,,,,,,,,,,,,,,,,,,,,,
,,,,,,space,1,0.4209,0,10,10,7,1,X,space,WWA121,001,WWA121,2024-01-22_11h42.05.947,Trial go no go,2020.2.10,MacIntel,60,,,,,,,,,,,,,,,,,,,,,,,,,,
,,,,,,space,1,0.4714,0,11,11,11,1,X,space,WWA121,001,WWA121,2024-01-22_11h42.05.947,Trial go no go,2020.2.10,MacIntel,60,,,,,,,,,,,,,,,,,,,,,,,,,,
,,,,,,,1,,0,12,12,4,1,W,none,WWA121,001,WWA121,2024-01-22_11h42.05.947,Trial go no go,2020.2.10,MacIntel,60,,,,,,,,,,,,,,,,,,,,,,,,,,
,,,,,,space,1,0.3667,0,13,13,13,1,X,space,WWA121,001,WWA121,2024-01-22_11h42.05.947,Trial go no go,2020.2.10,MacIntel,60,,,,,,,,,,,,,,,,,,,,,,,,,,
,,,,,,space,1,0.3704,0,14,14,12,1,X,space,WWA121,001,WWA121,2024-01-22_11h42.05.947,Trial go no go,2020.2.10,MacIntel,60,,,,,,,,,,,,,,,,,,,,,,,,,,
,,,,,,,,,,,,,,,,WWA121,001,WWA121,2024-01-22_11h42.05.947,Trial go no go,2020.2.10,MacIntel,60,space,6.7252,,1,0,0,0,39,1,M,none,,,,,,,,,,,,,,,
,,,,,,,,,,,,,,,,WWA121,001,WWA121,2024-01-22_11h42.05.947,Trial go no go,2020.2.10,MacIntel,60,,,space,1,0,1,1,18,1,X,space,0.5225,,,,,,,,,,,,,,
,,,,,,,,,,,,,,,,WWA121,001,WWA121,2024-01-22_11h42.05.947,Trial go no go,2020.2.10,MacIntel,60,,,space,1,0,2,2,28,1,X,space,0.3192,,,,,,,,,,,,,,
,,,,,,,,,,,,,,,,WWA121,001,WWA121,2024-01-22_11h42.05.947,Trial go no go,2020.2.10,MacIntel,60,,,space,1,0,3,3,2,1,X,space,0.3015,,,,,,,,,,,,,,
,,,,,,,,,,,,,,,,WWA121,001,WWA121,2024-01-22_11h42.05.947,Trial go no go,2020.2.10,MacIntel,60,,,,1,0,4,4,49,1,E,none,,,,,,,,,,,,,,,
,,,,,,,,,,,,,,,,WWA121,001,WWA121,2024-01-22_11h42.05.947,Trial go no go,2020.2.10,MacIntel,60,,,space,1,0,5,5,12,1,X,space,0.2956,,,,,,,,,,,,,,
,,,,,,,,,,,,,,,,WWA121,001,WWA121,2024-01-22_11h42.05.947,Trial go no go,2020.2.10,MacIntel,60,,,space,1,0,6,6,40,1,X,space,0.3213,,,,,,,,,,,,,,
,,,,,,,,,,,,,,,,WWA121,001,WWA121,2024-01-22_11h42.05.947,Trial go no go,2020.2.10,MacIntel,60,,,space,1,0,7,7,41,1,X,space,0.3242,,,,,,,,,,,,,,
,,,,,,,,,,,,,,,,WWA121,001,WWA121,2024-01-22_11h42.05.947,Trial go no go,2020.2.10,MacIntel,60,,,space,1,0,8,8,43,1,X,space,0.3275,,,,,,,,,,,,,,
,,,,,,,,,,,,,,,,WWA121,001,WWA121,2024-01-22_11h42.05.947,Trial go no go,2020.2.10,MacIntel,60,,,space,1,0,9,9,36,1,X,space,0.3267,,,,,,,,,,,,,,
,,,,,,,,,,,,,,,,WWA121,001,WWA121,2024-01-22_11h42.05.947,Trial go no go,2020.2.10,MacIntel,60,,,space,1,0,10,10,17,1,X,space,0.3196,,,,,,,,,,,,,,
,,,,,,,,,,,,,,,,WWA121,001,WWA121,2024-01-22_11h42.05.947,Trial go no go,2020.2.10,MacIntel,60,,,space,1,0,11,11,20,1,X,space,0.2876,,,,,,,,,,,,,,
,,,,,,,,,,,,,,,,WWA121,001,WWA121,2024-01-22_11h42.05.947,Trial go no go,2020.2.10,MacIntel,60,,,space,1,0,12,12,26,1,X,space,0.2522,,,,,,,,,,,,,,
,,,,,,,,,,,,,,,,WWA121,001,WWA121,2024-01-22_11h42.05.947,Trial go no go,2020.2.10,MacIntel,60,,,space,1,0,13,13,22,1,X,space,0.2728,,,,,,,,,,,,,,
,,,,,,,,,,,,,,,,WWA121,001,WWA121,2024-01-22_11h42.05.947,Trial go no go,2020.2.10,MacIntel,60,,,space,1,0,14,14,23,1,X,space,0.3205,,,,,,,,,,,,,,
,,,,,,,,,,,,,,,,WWA121,001,WWA121,2024-01-22_11h42.05.947,Trial go no go,2020.2.10,MacIntel,60,,,space,1,0,15,15,48,1,X,space,0.2886,,,,,,,,,,,,,,
,,,,,,,,,,,,,,,,WWA121,001,WWA121,2024-01-22_11h42.05.947,Trial go no go,2020.2.10,MacIntel,60,,,space,1,0,16,16,5,1,X,space,0.2721,,,,,,,,,,,,,,
,,,,,,,,,,,,,,,,WWA121,001,WWA121,2024-01-22_11h42.05.947,Trial go no go,2020.2.10,MacIntel,60,,,,1,0,17,17,29,1,T,none,,,,,,,,,,,,,,,
,,,,,,,,,,,,,,,,WWA121,001,WWA121,2024-01-22_11h42.05.947,Trial go no go,2020.2.10,MacIntel,60,,,space,1,0,18,18,47,1,X,space,0.4,,,,,,,,,,,,,,
,,,,,,,,,,,,,,,,WWA121,001,WWA121,2024-01-22_11h42.05.947,Trial go no go,2020.2.10,MacIntel,60,,,space,1,0,19,19,32,1,X,space,0.377,,,,,,,,,,,,,,
,,,,,,,,,,,,,,,,WWA121,001,WWA121,2024-01-22_11h42.05.947,Trial go no go,2020.2.10,MacIntel,60,,,space,1,0,20,20,46,1,X,space,0.2854,,,,,,,,,,,,,,
,,,,,,,,,,,,,,,,WWA121,001,WWA121,2024-01-22_11h42.05.947,Trial go no go,2020.2.10,MacIntel,60,,,space,1,0,21,21,15,1,X,space,0.269,,,,,,,,,,,,,,
,,,,,,,,,,,,,,,,WWA121,001,WWA121,2024-01-22_11h42.05.947,Trial go no go,2020.2.10,MacIntel,60,,,space,1,0,22,22,42,1,X,space,0.2936,,,,,,,,,,,,,,
,,,,,,,,,,,,,,,,WWA121,001,WWA121,2024-01-22_11h42.05.947,Trial go no go,2020.2.10,MacIntel,60,,,space,1,0,23,23,38,1,X,space,0.2745,,,,,,,,,,,,,,
,,,,,,,,,,,,,,,,WWA121,001,WWA121,2024-01-22_11h42.05.947,Trial go no go,2020.2.10,MacIntel,60,,,space,1,0,24,24,3,1,X,space,0.2873,,,,,,,,,,,,,,
,,,,,,,,,,,,,,,,WWA121,001,WWA121,2024-01-22_11h42.05.947,Trial go no go,2020.2.10,MacIntel,60,,,space,1,0,25,25,33,1,X,space,0.2678,,,,,,,,,,,,,,
,,,,,,,,,,,,,,,,WWA121,001,WWA121,2024-01-22_11h42.05.947,Trial go no go,2020.2.10,MacIntel,60,,,space,1,0,26,26,25,1,X,space,0.2708,,,,,,,,,,,,,,
,,,,,,,,,,,,,,,,WWA121,001,WWA121,2024-01-22_11h42.05.947,Trial go no go,2020.2.10,MacIntel,60,,,space,0,0,27,27,44,1,F,none,0.2819,,,,,,,,,,,,,,
,,,,,,,,,,,,,,,,WWA121,001,WWA121,2024-01-22_11h42.05.947,Trial go no go,2020.2.10,MacIntel,60,,,space,0,0,28,28,24,1,H,none,0.2866,,,,,,,,,,,,,,
,,,,,,,,,,,,,,,,WWA121,001,WWA121,2024-01-22_11h42.05.947,Trial go no go,2020.2.10,MacIntel,60,,,,1,0,29,29,34,1,N,none,,,,,,,,,,,,,,,
,,,,,,,,,,,,,,,,WWA121,001,WWA121,2024-01-22_11h42.05.947,Trial go no go,2020.2.10,MacIntel,60,,,space,1,0,30,30,11,1,X,space,0.4012,,,,,,,,,,,,,,
,,,,,,,,,,,,,,,,WWA121,001,WWA121,2024-01-22_11h42.05.947,Trial go no go,2020.2.10,MacIntel,60,,,space,1,0,31,31,1,1,X,space,0.3383,,,,,,,,,,,,,,
,,,,,,,,,,,,,,,,WWA121,001,WWA121,2024-01-22_11h42.05.947,Trial go no go,2020.2.10,MacIntel,60,,,space,1,0,32,32,6,1,X,space,0.304,,,,,,,,,,,,,,
,,,,,,,,,,,,,,,,WWA121,001,WWA121,2024-01-22_11h42.05.947,Trial go no go,2020.2.10,MacIntel,60,,,space,1,0,33,33,37,1,X,space,0.2881,,,,,,,,,,,,,,
,,,,,,,,,,,,,,,,WWA121,001,WWA121,2024-01-22_11h42.05.947,Trial go no go,2020.2.10,MacIntel,60,,,space,1,0,34,34,13,1,X,space,0.2869,,,,,,,,,,,,,,
,,,,,,,,,,,,,,,,WWA121,001,WWA121,2024-01-22_11h42.05.947,Trial go no go,2020.2.10,MacIntel,60,,,,1,0,35,35,9,1,W,none,,,,,,,,,,,,,,,
,,,,,,,,,,,,,,,,WWA121,001,WWA121,2024-01-22_11h42.05.947,Trial go no go,2020.2.10,MacIntel,60,,,,1,0,36,36,19,1,K,none,,,,,,,,,,,,,,,
,,,,,,,,,,,,,,,,WWA121,001,WWA121,2024-01-22_11h42.05.947,Trial go no go,2020.2.10,MacIntel,60,,,space,1,0,37,37,10,1,X,space,0.4853,,,,,,,,,,,,,,
,,,,,,,,,,,,,,,,WWA121,001,WWA121,2024-01-22_11h42.05.947,Trial go no go,2020.2.10,MacIntel,60,,,space,1,0,38,38,16,1,X,space,0.2915,,,,,,,,,,,,,,
,,,,,,,,,,,,,,,,WWA121,001,WWA121,2024-01-22_11h42.05.947,Trial go no go,2020.2.10,MacIntel,60,,,space,1,0,39,39,30,1,X,space,0.3538,,,,,,,,,,,,,,
,,,,,,,,,,,,,,,,WWA121,001,WWA121,2024-01-22_11h42.05.947,Trial go no go,2020.2.10,MacIntel,60,,,space,1,0,40,40,31,1,X,space,0.3835,,,,,,,,,,,,,,
,,,,,,,,,,,,,,,,WWA121,001,WWA121,2024-01-22_11h42.05.947,Trial go no go,2020.2.10,MacIntel,60,,,space,1,0,41,41,27,1,X,space,0.3889,,,,,,,,,,,,,,
,,,,,,,,,,,,,,,,WWA121,001,WWA121,2024-01-22_11h42.05.947,Trial go no go,2020.2.10,MacIntel,60,,,space,1,0,42,42,0,1,X,space,0.2892,,,,,,,,,,,,,,
,,,,,,,,,,,,,,,,WWA121,001,WWA121,2024-01-22_11h42.05.947,Trial go no go,2020.2.10,MacIntel,60,,,space,1,0,43,43,8,1,X,space,0.3378,,,,,,,,,,,,,,
,,,,,,,,,,,,,,,,WWA121,001,WWA121,2024-01-22_11h42.05.947,Trial go no go,2020.2.10,MacIntel,60,,,space,1,0,44,44,45,1,X,space,0.3173,,,,,,,,,,,,,,
,,,,,,,,,,,,,,,,WWA121,001,WWA121,2024-01-22_11h42.05.947,Trial go no go,2020.2.10,MacIntel,60,,,space,1,0,45,45,7,1,X,space,0.4215,,,,,,,,,,,,,,
,,,,,,,,,,,,,,,,WWA121,001,WWA121,2024-01-22_11h42.05.947,Trial go no go,2020.2.10,MacIntel,60,,,,1,0,46,46,4,1,V,none,,,,,,,,,,,,,,,
,,,,,,,,,,,,,,,,WWA121,001,WWA121,2024-01-22_11h42.05.947,Trial go no go,2020.2.10,MacIntel,60,,,,1,0,47,47,14,1,Y,none,,,,,,,,,,,,,,,
,,,,,,,,,,,,,,,,WWA121,001,WWA121,2024-01-22_11h42.05.947,Trial go no go,2020.2.10,MacIntel,60,,,space,1,0,48,48,35,1,X,space,0.3509,,,,,,,,,,,,,,
,,,,,,,,,,,,,,,,WWA121,001,WWA121,2024-01-22_11h42.05.947,Trial go no go,2020.2.10,MacIntel,60,,,space,1,0,49,49,21,1,X,space,0.3103,,,,,,,,,,,,,,
,,,,,,,,,,,,,,,,WWA121,001,WWA121,2024-01-22_11h42.05.947,Trial go no go,2020.2.10,MacIntel,60,,,,,,,,,,,,,z,14.3475,,0,0,0,0,38,1,E,space,,,
,,,,,,,,,,,,,,,,WWA121,001,WWA121,2024-01-22_11h42.05.947,Trial go no go,2020.2.10,MacIntel,60,,,,,,,,,,,,,,,space,1,0,1,1,40,1,R,space,0.367,,
,,,,,,,,,,,,,,,,WWA121,001,WWA121,2024-01-22_11h42.05.947,Trial go no go,2020.2.10,MacIntel,60,,,,,,,,,,,,,,,space,1,0,2,2,27,1,F,space,0.3349,,
,,,,,,,,,,,,,,,,WWA121,001,WWA121,2024-01-22_11h42.05.947,Trial go no go,2020.2.10,MacIntel,60,,,,,,,,,,,,,,,space,1,0,3,3,30,1,K,space,0.3478,,
,,,,,,,,,,,,,,,,WWA121,001,WWA121,2024-01-22_11h42.05.947,Trial go no go,2020.2.10,MacIntel,60,,,,,,,,,,,,,,,space,1,0,4,4,6,1,I,space,0.3329,,
,,,,,,,,,,,,,,,,WWA121,001,WWA121,2024-01-22_11h42.05.947,Trial go no go,2020.2.10,MacIntel,60,,,,,,,,,,,,,,,space,1,0,5,5,32,1,Z,space,0.3137,,
,,,,,,,,,,,,,,,,WWA121,001,WWA121,2024-01-22_11h42.05.947,Trial go no go,2020.2.10,MacIntel,60,,,,,,,,,,,,,,,space,1,0,6,6,36,1,M,space,0.3049,,
,,,,,,,,,,,,,,,,WWA121,001,WWA121,2024-01-22_11h42.05.947,Trial go no go,2020.2.10,MacIntel,60,,,,,,,,,,,,,,,space,0,0,7,7,9,1,X,none,0.3379,,
,,,,,,,,,,,,,,,,WWA121,001,WWA121,2024-01-22_11h42.05.947,Trial go no go,2020.2.10,MacIntel,60,,,,,,,,,,,,,,,space,1,0,8,8,13,1,Z,space,0.3686,,
,,,,,,,,,,,,,,,,WWA121,001,WWA121,2024-01-22_11h42.05.947,Trial go no go,2020.2.10,MacIntel,60,,,,,,,,,,,,,,,space,1,0,9,9,23,1,Y,space,0.3636,,
,,,,,,,,,,,,,,,,WWA121,001,WWA121,2024-01-22_11h42.05.947,Trial go no go,2020.2.10,MacIntel,60,,,,,,,,,,,,,,,space,1,0,10,10,25,1,I,space,0.4009,,
,,,,,,,,,,,,,,,,WWA121,001,WWA121,2024-01-22_11h42.05.947,Trial go no go,2020.2.10,MacIntel,60,,,,,,,,,,,,,,,space,1,0,11,11,41,1,T,space,0.3176,,
,,,,,,,,,,,,,,,,WWA121,001,WWA121,2024-01-22_11h42.05.947,Trial go no go,2020.2.10,MacIntel,60,,,,,,,,,,,,,,,,1,0,12,12,24,1,X,none,,,
,,,,,,,,,,,,,,,,WWA121,001,WWA121,2024-01-22_11h42.05.947,Trial go no go,2020.2.10,MacIntel,60,,,,,,,,,,,,,,,,1,0,13,13,44,1,X,none,,,
,,,,,,,,,,,,,,,,WWA121,001,WWA121,2024-01-22_11h42.05.947,Trial go no go,2020.2.10,MacIntel,60,,,,,,,,,,,,,,,,1,0,14,14,14,1,X,none,,,
,,,,,,,,,,,,,,,,WWA121,001,WWA121,2024-01-22_11h42.05.947,Trial go no go,2020.2.10,MacIntel,60,,,,,,,,,,,,,,,,1,0,15,15,4,1,X,none,,,
,,,,,,,,,,,,,,,,WWA121,001,WWA121,2024-01-22_11h42.05.947,Trial go no go,2020.2.10,MacIntel,60,,,,,,,,,,,,,,,space,1,0,16,16,42,1,Y,space,0.4198,,
,,,,,,,,,,,,,,,,WWA121,001,WWA121,2024-01-22_11h42.05.947,Trial go no go,2020.2.10,MacIntel,60,,,,,,,,,,,,,,,,1,0,17,17,34,1,X,none,,,
,,,,,,,,,,,,,,,,WWA121,001,WWA121,2024-01-22_11h42.05.947,Trial go no go,2020.2.10,MacIntel,60,,,,,,,,,,,,,,,space,1,0,18,18,2,1,R,space,0.4165,,
,,,,,,,,,,,,,,,,WWA121,001,WWA121,2024-01-22_11h42.05.947,Trial go no go,2020.2.10,MacIntel,60,,,,,,,,,,,,,,,space,0,0,19,19,29,1,X,none,0.3529,,
,,,,,,,,,,,,,,,,WWA121,001,WWA121,2024-01-22_11h42.05.947,Trial go no go,2020.2.10,MacIntel,60,,,,,,,,,,,,,,,space,1,0,20,20,45,1,A,space,0.3662,,
,,,,,,,,,,,,,,,,WWA121,001,WWA121,2024-01-22_11h42.05.947,Trial go no go,2020.2.10,MacIntel,60,,,,,,,,,,,,,,,,0,0,21,21,7,1,A,space,,,
,,,,,,,,,,,,,,,,WWA121,001,WWA121,2024-01-22_11h42.05.947,Trial go no go,2020.2.10,MacIntel,60,,,,,,,,,,,,,,,,1,0,22,22,39,1,X,none,,,
,,,,,,,,,,,,,,,,WWA121,001,WWA121,2024-01-22_11h42.05.947,Trial go no go,2020.2.10,MacIntel,60,,,,,,,,,,,,,,,space,1,0,23,23,47,1,H,space,0.3722,,
,,,,,,,,,,,,,,,,WWA121,001,WWA121,2024-01-22_11h42.05.947,Trial go no go,2020.2.10,MacIntel,60,,,,,,,,,,,,,,,space,1,0,24,24,15,1,V,space,0.3644,,
,,,,,,,,,,,,,,,,WWA121,001,WWA121,2024-01-22_11h42.05.947,Trial go no go,2020.2.10,MacIntel,60,,,,,,,,,,,,,,,space,1,0,25,25,43,1,I,space,0.3676,,
,,,,,,,,,,,,,,,,WWA121,001,WWA121,2024-01-22_11h42.05.947,Trial go no go,2020.2.10,MacIntel,60,,,,,,,,,,,,,,,space,1,0,26,26,48,1,K,space,0.4017,,
,,,,,,,,,,,,,,,,WWA121,001,WWA121,2024-01-22_11h42.05.947,Trial go no go,2020.2.10,MacIntel,60,,,,,,,,,,,,,,,space,1,0,27,27,17,1,M,space,0.3244,,
,,,,,,,,,,,,,,,,WWA121,001,WWA121,2024-01-22_11h42.05.947,Trial go no go,2020.2.10,MacIntel,60,,,,,,,,,,,,,,,space,1,0,28,28,31,1,L,space,0.3332,,
,,,,,,,,,,,,,,,,WWA121,001,WWA121,2024-01-22_11h42.05.947,Trial go no go,2020.2.10,MacIntel,60,,,,,,,,,,,,,,,space,1,0,29,29,22,1,T,space,0.2915,,
,,,,,,,,,,,,,,,,WWA121,001,WWA121,2024-01-22_11h42.05.947,Trial go no go,2020.2.10,MacIntel,60,,,,,,,,,,,,,,,space,1,0,30,30,1,1,E,space,0.3159,,
,,,,,,,,,,,,,,,,WWA121,001,WWA121,2024-01-22_11h42.05.947,Trial go no go,2020.2.10,MacIntel,60,,,,,,,,,,,,,,,space,1,0,31,31,0,1,W,space,0.4502,,
,,,,,,,,,,,,,,,,WWA121,001,WWA121,2024-01-22_11h42.05.947,Trial go no go,2020.2.10,MacIntel,60,,,,,,,,,,,,,,,space,1,0,32,32,3,1,T,space,0.421,,
,,,,,,,,,,,,,,,,WWA121,001,WWA121,2024-01-22_11h42.05.947,Trial go no go,2020.2.10,MacIntel,60,,,,,,,,,,,,,,,,1,0,33,33,49,1,X,none,,,
,,,,,,,,,,,,,,,,WWA121,001,WWA121,2024-01-22_11h42.05.947,Trial go no go,2020.2.10,MacIntel,60,,,,,,,,,,,,,,,space,1,0,34,34,33,1,V,space,0.4382,,
,,,,,,,,,,,,,,,,WWA121,001,WWA121,2024-01-22_11h42.05.947,Trial go no go,2020.2.10,MacIntel,60,,,,,,,,,,,,,,,space,1,0,35,35,26,1,A,space,0.3406,,
,,,,,,,,,,,,,,,,WWA121,001,WWA121,2024-01-22_11h42.05.947,Trial go no go,2020.2.10,MacIntel,60,,,,,,,,,,,,,,,space,1,0,36,36,18,1,W,space,0.3008,,
,,,,,,,,,,,,,,,,WWA121,001,WWA121,2024-01-22_11h42.05.947,Trial go no go,2020.2.10,MacIntel,60,,,,,,,,,,,,,,,space,1,0,37,37,37,1,W,space,0.3042,,
,,,,,,,,,,,,,,,,WWA121,001,WWA121,2024-01-22_11h42.05.947,Trial go no go,2020.2.10,MacIntel,60,,,,,,,,,,,,,,,space,1,0,38,38,21,1,R,space,0.3168,,
,,,,,,,,,,,,,,,,WWA121,001,WWA121,2024-01-22_11h42.05.947,Trial go no go,2020.2.10,MacIntel,60,,,,,,,,,,,,,,,space,0,0,39,39,19,1,X,none,0.3023,,
,,,,,,,,,,,,,,,,WWA121,001,WWA121,2024-01-22_11h42.05.947,Trial go no go,2020.2.10,MacIntel,60,,,,,,,,,,,,,,,space,1,0,40,40,10,1,H,space,0.3793,,
,,,,,,,,,,,,,,,,WWA121,001,WWA121,2024-01-22_11h42.05.947,Trial go no go,2020.2.10,MacIntel,60,,,,,,,,,,,,,,,space,1,0,41,41,28,1,H,space,0.3158,,
,,,,,,,,,,,,,,,,WWA121,001,WWA121,2024-01-22_11h42.05.947,Trial go no go,2020.2.10,MacIntel,60,,,,,,,,,,,,,,,space,1,0,42,42,16,1,N,space,0.317,,
,,,,,,,,,,,,,,,,WWA121,001,WWA121,2024-01-22_11h42.05.947,Trial go no go,2020.2.10,MacIntel,60,,,,,,,,,,,,,,,space,1,0,43,43,46,1,F,space,0.3352,,
,,,,,,,,,,,,,,,,WWA121,001,WWA121,2024-01-22_11h42.05.947,Trial go no go,2020.2.10,MacIntel,60,,,,,,,,,,,,,,,space,1,0,44,44,11,1,K,space,0.3201,,
,,,,,,,,,,,,,,,,WWA121,001,WWA121,2024-01-22_11h42.05.947,Trial go no go,2020.2.10,MacIntel,60,,,,,,,,,,,,,,,space,1,0,45,45,35,1,N,space,0.2862,,
,,,,,,,,,,,,,,,,WWA121,001,WWA121,2024-01-22_11h42.05.947,Trial go no go,2020.2.10,MacIntel,60,,,,,,,,,,,,,,,space,1,0,46,46,5,1,Y,space,0.3003,,
,,,,,,,,,,,,,,,,WWA121,001,WWA121,2024-01-22_11h42.05.947,Trial go no go,2020.2.10,MacIntel,60,,,,,,,,,,,,,,,space,1,0,47,47,12,1,L,space,0.2567,,
,,,,,,,,,,,,,,,,WWA121,001,WWA121,2024-01-22_11h42.05.947,Trial go no go,2020.2.10,MacIntel,60,,,,,,,,,,,,,,,space,1,0,48,48,20,1,E,space,0.3249,,
,,,,,,,,,,,,,,,,WWA121,001,WWA121,2024-01-22_11h42.05.947,Trial go no go,2020.2.10,MacIntel,60,,,,,,,,,,,,,,,space,1,0,49,49,8,1,F,space,0.2843,,
,,,,,,,,,,,,,,,,WWA121,001,WWA121,2024-01-22_11h42.05.947,Trial go no go,2020.2.10,MacIntel,60,,,,,,,,,,,,,,,,,,,,,,,,,space,12.736
