resp_Welcome.keys,resp_Welcome.rt,resp_Instr_Intro.keys,resp_Instr_Intro.rt,resp_Instr_Prac1.keys,resp_Instr_Prac1.rt,resp_trial_Prac1.keys,resp_trial_Prac1.corr,resp_trial_Prac1.rt,prac_trials.thisRepN,prac_trials.thisTrialN,prac_trials.thisN,prac_trials.thisIndex,prac_trials.ran,stimulus_prac1,corrAns_prac1,participant,session,indywidualny kod,date,expName,psychopyVersion,OS,frameRate,resp_Instr_Test1.keys,resp_Instr_Test1.rt,resp_trial_Test1.keys,resp_trial_Test1.corr,resp_trial_Test1.rt,test1trial.thisRepN,test1trial.thisTrialN,test1trial.thisN,test1trial.thisIndex,test1trial.ran,stimulus_test1,corrAns_test1,resp_Instr_Test2.keys,resp_Instr_Test2.rt,key_resp_Test2.keys,key_resp_Test2.corr,test2trial.thisRepN,test2trial.thisTrialN,test2trial.thisN,test2trial.thisIndex,test2trial.ran,stimulus_test2,corrAns_test2,key_resp_Test2.rt,resp_theEnd.keys,resp_theEnd.rt
space,1097.1976,space,13.7229,space,8.9036,space,1,0.5716,0,0,0,0,1,X,space,WWA43,001,WWA43,2023-09-22_09h03.24.091,Trial go no go,2020.2.10,Win32,60,,,,,,,,,,,,,,,,,,,,,,,,,,
,,,,,,space,1,0.7466,0,1,1,5,1,X,space,WWA43,001,WWA43,2023-09-22_09h03.24.091,Trial go no go,2020.2.10,Win32,60,,,,,,,,,,,,,,,,,,,,,,,,,,
,,,,,,space,1,0.4603,0,2,2,13,1,X,space,WWA43,001,WWA43,2023-09-22_09h03.24.091,Trial go no go,2020.2.10,Win32,60,,,,,,,,,,,,,,,,,,,,,,,,,,
,,,,,,space,1,0.43,0,3,3,10,1,X,space,WWA43,001,WWA43,2023-09-22_09h03.24.091,Trial go no go,2020.2.10,Win32,60,,,,,,,,,,,,,,,,,,,,,,,,,,
,,,,,,space,1,0.5592,0,4,4,7,1,X,space,WWA43,001,WWA43,2023-09-22_09h03.24.091,Trial go no go,2020.2.10,Win32,60,,,,,,,,,,,,,,,,,,,,,,,,,,
,,,,,,space,1,0.4808,0,5,5,1,1,X,space,WWA43,001,WWA43,2023-09-22_09h03.24.091,Trial go no go,2020.2.10,Win32,60,,,,,,,,,,,,,,,,,,,,,,,,,,
,,,,,,,1,,0,6,6,9,1,V,none,WWA43,001,WWA43,2023-09-22_09h03.24.091,Trial go no go,2020.2.10,Win32,60,,,,,,,,,,,,,,,,,,,,,,,,,,
,,,,,,space,0,0.4819,0,7,7,4,1,W,none,WWA43,001,WWA43,2023-09-22_09h03.24.091,Trial go no go,2020.2.10,Win32,60,,,,,,,,,,,,,,,,,,,,,,,,,,
,,,,,,space,1,0.7719,0,8,8,3,1,X,space,WWA43,001,WWA43,2023-09-22_09h03.24.091,Trial go no go,2020.2.10,Win32,60,,,,,,,,,,,,,,,,,,,,,,,,,,
,,,,,,,1,,0,9,9,14,1,K,none,WWA43,001,WWA43,2023-09-22_09h03.24.091,Trial go no go,2020.2.10,Win32,60,,,,,,,,,,,,,,,,,,,,,,,,,,
,,,,,,space,1,0.6321,0,10,10,6,1,X,space,WWA43,001,WWA43,2023-09-22_09h03.24.091,Trial go no go,2020.2.10,Win32,60,,,,,,,,,,,,,,,,,,,,,,,,,,
,,,,,,space,1,0.6329,0,11,11,11,1,X,space,WWA43,001,WWA43,2023-09-22_09h03.24.091,Trial go no go,2020.2.10,Win32,60,,,,,,,,,,,,,,,,,,,,,,,,,,
,,,,,,space,1,0.458,0,12,12,8,1,X,space,WWA43,001,WWA43,2023-09-22_09h03.24.091,Trial go no go,2020.2.10,Win32,60,,,,,,,,,,,,,,,,,,,,,,,,,,
,,,,,,space,1,0.5238,0,13,13,2,1,X,space,WWA43,001,WWA43,2023-09-22_09h03.24.091,Trial go no go,2020.2.10,Win32,60,,,,,,,,,,,,,,,,,,,,,,,,,,
,,,,,,space,1,0.4129,0,14,14,12,1,X,space,WWA43,001,WWA43,2023-09-22_09h03.24.091,Trial go no go,2020.2.10,Win32,60,,,,,,,,,,,,,,,,,,,,,,,,,,
,,,,,,,,,,,,,,,,WWA43,001,WWA43,2023-09-22_09h03.24.091,Trial go no go,2020.2.10,Win32,60,space,4.4955,space,1,0.4445,0,0,0,28,1,X,space,,,,,,,,,,,,,,
,,,,,,,,,,,,,,,,WWA43,001,WWA43,2023-09-22_09h03.24.091,Trial go no go,2020.2.10,Win32,60,,,,1,,0,1,1,9,1,W,none,,,,,,,,,,,,,,
,,,,,,,,,,,,,,,,WWA43,001,WWA43,2023-09-22_09h03.24.091,Trial go no go,2020.2.10,Win32,60,,,,1,,0,2,2,24,1,H,none,,,,,,,,,,,,,,
,,,,,,,,,,,,,,,,WWA43,001,WWA43,2023-09-22_09h03.24.091,Trial go no go,2020.2.10,Win32,60,,,space,1,0.4598,0,3,3,30,1,X,space,,,,,,,,,,,,,,
,,,,,,,,,,,,,,,,WWA43,001,WWA43,2023-09-22_09h03.24.091,Trial go no go,2020.2.10,Win32,60,,,space,1,0.3863,0,4,4,11,1,X,space,,,,,,,,,,,,,,
,,,,,,,,,,,,,,,,WWA43,001,WWA43,2023-09-22_09h03.24.091,Trial go no go,2020.2.10,Win32,60,,,space,1,0.33,0,5,5,41,1,X,space,,,,,,,,,,,,,,
,,,,,,,,,,,,,,,,WWA43,001,WWA43,2023-09-22_09h03.24.091,Trial go no go,2020.2.10,Win32,60,,,space,1,0.3522,0,6,6,16,1,X,space,,,,,,,,,,,,,,
,,,,,,,,,,,,,,,,WWA43,001,WWA43,2023-09-22_09h03.24.091,Trial go no go,2020.2.10,Win32,60,,,,1,,0,7,7,29,1,T,none,,,,,,,,,,,,,,
,,,,,,,,,,,,,,,,WWA43,001,WWA43,2023-09-22_09h03.24.091,Trial go no go,2020.2.10,Win32,60,,,space,1,0.3684,0,8,8,18,1,X,space,,,,,,,,,,,,,,
,,,,,,,,,,,,,,,,WWA43,001,WWA43,2023-09-22_09h03.24.091,Trial go no go,2020.2.10,Win32,60,,,space,1,0.325,0,9,9,42,1,X,space,,,,,,,,,,,,,,
,,,,,,,,,,,,,,,,WWA43,001,WWA43,2023-09-22_09h03.24.091,Trial go no go,2020.2.10,Win32,60,,,space,1,0.3348,0,10,10,13,1,X,space,,,,,,,,,,,,,,
,,,,,,,,,,,,,,,,WWA43,001,WWA43,2023-09-22_09h03.24.091,Trial go no go,2020.2.10,Win32,60,,,space,1,0.3392,0,11,11,33,1,X,space,,,,,,,,,,,,,,
,,,,,,,,,,,,,,,,WWA43,001,WWA43,2023-09-22_09h03.24.091,Trial go no go,2020.2.10,Win32,60,,,space,1,0.3142,0,12,12,21,1,X,space,,,,,,,,,,,,,,
,,,,,,,,,,,,,,,,WWA43,001,WWA43,2023-09-22_09h03.24.091,Trial go no go,2020.2.10,Win32,60,,,space,1,0.3693,0,13,13,48,1,X,space,,,,,,,,,,,,,,
,,,,,,,,,,,,,,,,WWA43,001,WWA43,2023-09-22_09h03.24.091,Trial go no go,2020.2.10,Win32,60,,,space,1,0.3127,0,14,14,45,1,X,space,,,,,,,,,,,,,,
,,,,,,,,,,,,,,,,WWA43,001,WWA43,2023-09-22_09h03.24.091,Trial go no go,2020.2.10,Win32,60,,,space,1,0.3353,0,15,15,3,1,X,space,,,,,,,,,,,,,,
,,,,,,,,,,,,,,,,WWA43,001,WWA43,2023-09-22_09h03.24.091,Trial go no go,2020.2.10,Win32,60,,,space,1,0.2944,0,16,16,38,1,X,space,,,,,,,,,,,,,,
,,,,,,,,,,,,,,,,WWA43,001,WWA43,2023-09-22_09h03.24.091,Trial go no go,2020.2.10,Win32,60,,,space,1,0.3349,0,17,17,25,1,X,space,,,,,,,,,,,,,,
,,,,,,,,,,,,,,,,WWA43,001,WWA43,2023-09-22_09h03.24.091,Trial go no go,2020.2.10,Win32,60,,,space,1,0.3089,0,18,18,17,1,X,space,,,,,,,,,,,,,,
,,,,,,,,,,,,,,,,WWA43,001,WWA43,2023-09-22_09h03.24.091,Trial go no go,2020.2.10,Win32,60,,,space,1,0.3349,0,19,19,5,1,X,space,,,,,,,,,,,,,,
,,,,,,,,,,,,,,,,WWA43,001,WWA43,2023-09-22_09h03.24.091,Trial go no go,2020.2.10,Win32,60,,,space,1,0.3229,0,20,20,40,1,X,space,,,,,,,,,,,,,,
,,,,,,,,,,,,,,,,WWA43,001,WWA43,2023-09-22_09h03.24.091,Trial go no go,2020.2.10,Win32,60,,,space,1,0.4261,0,21,21,8,1,X,space,,,,,,,,,,,,,,
,,,,,,,,,,,,,,,,WWA43,001,WWA43,2023-09-22_09h03.24.091,Trial go no go,2020.2.10,Win32,60,,,space,1,0.353,0,22,22,10,1,X,space,,,,,,,,,,,,,,
,,,,,,,,,,,,,,,,WWA43,001,WWA43,2023-09-22_09h03.24.091,Trial go no go,2020.2.10,Win32,60,,,,1,,0,23,23,39,1,M,none,,,,,,,,,,,,,,
,,,,,,,,,,,,,,,,WWA43,001,WWA43,2023-09-22_09h03.24.091,Trial go no go,2020.2.10,Win32,60,,,space,1,0.4183,0,24,24,35,1,X,space,,,,,,,,,,,,,,
,,,,,,,,,,,,,,,,WWA43,001,WWA43,2023-09-22_09h03.24.091,Trial go no go,2020.2.10,Win32,60,,,space,1,0.3737,0,25,25,22,1,X,space,,,,,,,,,,,,,,
,,,,,,,,,,,,,,,,WWA43,001,WWA43,2023-09-22_09h03.24.091,Trial go no go,2020.2.10,Win32,60,,,space,1,0.3679,0,26,26,26,1,X,space,,,,,,,,,,,,,,
,,,,,,,,,,,,,,,,WWA43,001,WWA43,2023-09-22_09h03.24.091,Trial go no go,2020.2.10,Win32,60,,,space,1,0.3561,0,27,27,46,1,X,space,,,,,,,,,,,,,,
,,,,,,,,,,,,,,,,WWA43,001,WWA43,2023-09-22_09h03.24.091,Trial go no go,2020.2.10,Win32,60,,,space,1,0.3312,0,28,28,37,1,X,space,,,,,,,,,,,,,,
,,,,,,,,,,,,,,,,WWA43,001,WWA43,2023-09-22_09h03.24.091,Trial go no go,2020.2.10,Win32,60,,,space,1,0.3061,0,29,29,7,1,X,space,,,,,,,,,,,,,,
,,,,,,,,,,,,,,,,WWA43,001,WWA43,2023-09-22_09h03.24.091,Trial go no go,2020.2.10,Win32,60,,,space,1,0.2683,0,30,30,1,1,X,space,,,,,,,,,,,,,,
,,,,,,,,,,,,,,,,WWA43,001,WWA43,2023-09-22_09h03.24.091,Trial go no go,2020.2.10,Win32,60,,,,1,,0,31,31,44,1,F,none,,,,,,,,,,,,,,
,,,,,,,,,,,,,,,,WWA43,001,WWA43,2023-09-22_09h03.24.091,Trial go no go,2020.2.10,Win32,60,,,space,1,0.4073,0,32,32,47,1,X,space,,,,,,,,,,,,,,
,,,,,,,,,,,,,,,,WWA43,001,WWA43,2023-09-22_09h03.24.091,Trial go no go,2020.2.10,Win32,60,,,space,1,0.3019,0,33,33,43,1,X,space,,,,,,,,,,,,,,
,,,,,,,,,,,,,,,,WWA43,001,WWA43,2023-09-22_09h03.24.091,Trial go no go,2020.2.10,Win32,60,,,,1,,0,34,34,34,1,N,none,,,,,,,,,,,,,,
,,,,,,,,,,,,,,,,WWA43,001,WWA43,2023-09-22_09h03.24.091,Trial go no go,2020.2.10,Win32,60,,,space,1,0.4131,0,35,35,27,1,X,space,,,,,,,,,,,,,,
,,,,,,,,,,,,,,,,WWA43,001,WWA43,2023-09-22_09h03.24.091,Trial go no go,2020.2.10,Win32,60,,,space,1,0.4359,0,36,36,12,1,X,space,,,,,,,,,,,,,,
,,,,,,,,,,,,,,,,WWA43,001,WWA43,2023-09-22_09h03.24.091,Trial go no go,2020.2.10,Win32,60,,,space,1,0.4109,0,37,37,36,1,X,space,,,,,,,,,,,,,,
,,,,,,,,,,,,,,,,WWA43,001,WWA43,2023-09-22_09h03.24.091,Trial go no go,2020.2.10,Win32,60,,,,1,,0,38,38,4,1,V,none,,,,,,,,,,,,,,
,,,,,,,,,,,,,,,,WWA43,001,WWA43,2023-09-22_09h03.24.091,Trial go no go,2020.2.10,Win32,60,,,,1,,0,39,39,19,1,K,none,,,,,,,,,,,,,,
,,,,,,,,,,,,,,,,WWA43,001,WWA43,2023-09-22_09h03.24.091,Trial go no go,2020.2.10,Win32,60,,,space,1,0.3683,0,40,40,20,1,X,space,,,,,,,,,,,,,,
,,,,,,,,,,,,,,,,WWA43,001,WWA43,2023-09-22_09h03.24.091,Trial go no go,2020.2.10,Win32,60,,,,1,,0,41,41,49,1,E,none,,,,,,,,,,,,,,
,,,,,,,,,,,,,,,,WWA43,001,WWA43,2023-09-22_09h03.24.091,Trial go no go,2020.2.10,Win32,60,,,space,1,0.4139,0,42,42,15,1,X,space,,,,,,,,,,,,,,
,,,,,,,,,,,,,,,,WWA43,001,WWA43,2023-09-22_09h03.24.091,Trial go no go,2020.2.10,Win32,60,,,space,1,0.436,0,43,43,2,1,X,space,,,,,,,,,,,,,,
,,,,,,,,,,,,,,,,WWA43,001,WWA43,2023-09-22_09h03.24.091,Trial go no go,2020.2.10,Win32,60,,,space,1,0.3348,0,44,44,6,1,X,space,,,,,,,,,,,,,,
,,,,,,,,,,,,,,,,WWA43,001,WWA43,2023-09-22_09h03.24.091,Trial go no go,2020.2.10,Win32,60,,,space,1,0.3223,0,45,45,0,1,X,space,,,,,,,,,,,,,,
,,,,,,,,,,,,,,,,WWA43,001,WWA43,2023-09-22_09h03.24.091,Trial go no go,2020.2.10,Win32,60,,,space,1,0.314,0,46,46,23,1,X,space,,,,,,,,,,,,,,
,,,,,,,,,,,,,,,,WWA43,001,WWA43,2023-09-22_09h03.24.091,Trial go no go,2020.2.10,Win32,60,,,space,1,0.3044,0,47,47,31,1,X,space,,,,,,,,,,,,,,
,,,,,,,,,,,,,,,,WWA43,001,WWA43,2023-09-22_09h03.24.091,Trial go no go,2020.2.10,Win32,60,,,space,1,0.3115,0,48,48,32,1,X,space,,,,,,,,,,,,,,
,,,,,,,,,,,,,,,,WWA43,001,WWA43,2023-09-22_09h03.24.091,Trial go no go,2020.2.10,Win32,60,,,space,0,0.3187,0,49,49,14,1,Y,none,,,,,,,,,,,,,,
,,,,,,,,,,,,,,,,WWA43,001,WWA43,2023-09-22_09h03.24.091,Trial go no go,2020.2.10,Win32,60,,,,,,,,,,,,,z,8.4382,,0,0,0,0,27,1,F,space,,,
,,,,,,,,,,,,,,,,WWA43,001,WWA43,2023-09-22_09h03.24.091,Trial go no go,2020.2.10,Win32,60,,,,,,,,,,,,,,,,1,0,1,1,24,1,X,none,,,
,,,,,,,,,,,,,,,,WWA43,001,WWA43,2023-09-22_09h03.24.091,Trial go no go,2020.2.10,Win32,60,,,,,,,,,,,,,,,space,1,0,2,2,40,1,R,space,0.3718,,
,,,,,,,,,,,,,,,,WWA43,001,WWA43,2023-09-22_09h03.24.091,Trial go no go,2020.2.10,Win32,60,,,,,,,,,,,,,,,space,1,0,3,3,23,1,Y,space,0.4468,,
,,,,,,,,,,,,,,,,WWA43,001,WWA43,2023-09-22_09h03.24.091,Trial go no go,2020.2.10,Win32,60,,,,,,,,,,,,,,,space,1,0,4,4,0,1,W,space,0.3393,,
,,,,,,,,,,,,,,,,WWA43,001,WWA43,2023-09-22_09h03.24.091,Trial go no go,2020.2.10,Win32,60,,,,,,,,,,,,,,,space,1,0,5,5,13,1,Z,space,0.3141,,
,,,,,,,,,,,,,,,,WWA43,001,WWA43,2023-09-22_09h03.24.091,Trial go no go,2020.2.10,Win32,60,,,,,,,,,,,,,,,space,1,0,6,6,42,1,Y,space,0.3375,,
,,,,,,,,,,,,,,,,WWA43,001,WWA43,2023-09-22_09h03.24.091,Trial go no go,2020.2.10,Win32,60,,,,,,,,,,,,,,,space,1,0,7,7,45,1,A,space,0.5034,,
,,,,,,,,,,,,,,,,WWA43,001,WWA43,2023-09-22_09h03.24.091,Trial go no go,2020.2.10,Win32,60,,,,,,,,,,,,,,,space,0,0,8,8,9,1,X,none,0.3355,,
,,,,,,,,,,,,,,,,WWA43,001,WWA43,2023-09-22_09h03.24.091,Trial go no go,2020.2.10,Win32,60,,,,,,,,,,,,,,,space,1,0,9,9,37,1,W,space,0.3266,,
,,,,,,,,,,,,,,,,WWA43,001,WWA43,2023-09-22_09h03.24.091,Trial go no go,2020.2.10,Win32,60,,,,,,,,,,,,,,,space,1,0,10,10,2,1,R,space,0.2859,,
,,,,,,,,,,,,,,,,WWA43,001,WWA43,2023-09-22_09h03.24.091,Trial go no go,2020.2.10,Win32,60,,,,,,,,,,,,,,,space,1,0,11,11,8,1,F,space,0.3404,,
,,,,,,,,,,,,,,,,WWA43,001,WWA43,2023-09-22_09h03.24.091,Trial go no go,2020.2.10,Win32,60,,,,,,,,,,,,,,,space,1,0,12,12,41,1,T,space,0.3631,,
,,,,,,,,,,,,,,,,WWA43,001,WWA43,2023-09-22_09h03.24.091,Trial go no go,2020.2.10,Win32,60,,,,,,,,,,,,,,,space,1,0,13,13,33,1,V,space,0.3705,,
,,,,,,,,,,,,,,,,WWA43,001,WWA43,2023-09-22_09h03.24.091,Trial go no go,2020.2.10,Win32,60,,,,,,,,,,,,,,,,1,0,14,14,49,1,X,none,,,
,,,,,,,,,,,,,,,,WWA43,001,WWA43,2023-09-22_09h03.24.091,Trial go no go,2020.2.10,Win32,60,,,,,,,,,,,,,,,space,1,0,15,15,48,1,K,space,0.3041,,
,,,,,,,,,,,,,,,,WWA43,001,WWA43,2023-09-22_09h03.24.091,Trial go no go,2020.2.10,Win32,60,,,,,,,,,,,,,,,space,0,0,16,16,39,1,X,none,0.3146,,
,,,,,,,,,,,,,,,,WWA43,001,WWA43,2023-09-22_09h03.24.091,Trial go no go,2020.2.10,Win32,60,,,,,,,,,,,,,,,space,1,0,17,17,47,1,H,space,0.4144,,
,,,,,,,,,,,,,,,,WWA43,001,WWA43,2023-09-22_09h03.24.091,Trial go no go,2020.2.10,Win32,60,,,,,,,,,,,,,,,space,1,0,18,18,12,1,L,space,0.421,,
,,,,,,,,,,,,,,,,WWA43,001,WWA43,2023-09-22_09h03.24.091,Trial go no go,2020.2.10,Win32,60,,,,,,,,,,,,,,,,1,0,19,19,19,1,X,none,,,
,,,,,,,,,,,,,,,,WWA43,001,WWA43,2023-09-22_09h03.24.091,Trial go no go,2020.2.10,Win32,60,,,,,,,,,,,,,,,space,1,0,20,20,16,1,N,space,0.2785,,
,,,,,,,,,,,,,,,,WWA43,001,WWA43,2023-09-22_09h03.24.091,Trial go no go,2020.2.10,Win32,60,,,,,,,,,,,,,,,,1,0,21,21,4,1,X,none,,,
,,,,,,,,,,,,,,,,WWA43,001,WWA43,2023-09-22_09h03.24.091,Trial go no go,2020.2.10,Win32,60,,,,,,,,,,,,,,,space,1,0,22,22,3,1,T,space,0.2747,,
,,,,,,,,,,,,,,,,WWA43,001,WWA43,2023-09-22_09h03.24.091,Trial go no go,2020.2.10,Win32,60,,,,,,,,,,,,,,,space,1,0,23,23,5,1,Y,space,0.4093,,
,,,,,,,,,,,,,,,,WWA43,001,WWA43,2023-09-22_09h03.24.091,Trial go no go,2020.2.10,Win32,60,,,,,,,,,,,,,,,space,1,0,24,24,35,1,N,space,0.3361,,
,,,,,,,,,,,,,,,,WWA43,001,WWA43,2023-09-22_09h03.24.091,Trial go no go,2020.2.10,Win32,60,,,,,,,,,,,,,,,space,1,0,25,25,7,1,A,space,0.3434,,
,,,,,,,,,,,,,,,,WWA43,001,WWA43,2023-09-22_09h03.24.091,Trial go no go,2020.2.10,Win32,60,,,,,,,,,,,,,,,space,1,0,26,26,21,1,R,space,0.3048,,
,,,,,,,,,,,,,,,,WWA43,001,WWA43,2023-09-22_09h03.24.091,Trial go no go,2020.2.10,Win32,60,,,,,,,,,,,,,,,space,1,0,27,27,46,1,F,space,0.3093,,
,,,,,,,,,,,,,,,,WWA43,001,WWA43,2023-09-22_09h03.24.091,Trial go no go,2020.2.10,Win32,60,,,,,,,,,,,,,,,space,1,0,28,28,18,1,W,space,0.4303,,
,,,,,,,,,,,,,,,,WWA43,001,WWA43,2023-09-22_09h03.24.091,Trial go no go,2020.2.10,Win32,60,,,,,,,,,,,,,,,space,1,0,29,29,43,1,I,space,0.3706,,
,,,,,,,,,,,,,,,,WWA43,001,WWA43,2023-09-22_09h03.24.091,Trial go no go,2020.2.10,Win32,60,,,,,,,,,,,,,,,space,1,0,30,30,25,1,I,space,0.349,,
,,,,,,,,,,,,,,,,WWA43,001,WWA43,2023-09-22_09h03.24.091,Trial go no go,2020.2.10,Win32,60,,,,,,,,,,,,,,,space,1,0,31,31,6,1,I,space,0.2915,,
,,,,,,,,,,,,,,,,WWA43,001,WWA43,2023-09-22_09h03.24.091,Trial go no go,2020.2.10,Win32,60,,,,,,,,,,,,,,,space,1,0,32,32,32,1,Z,space,0.3918,,
,,,,,,,,,,,,,,,,WWA43,001,WWA43,2023-09-22_09h03.24.091,Trial go no go,2020.2.10,Win32,60,,,,,,,,,,,,,,,space,1,0,33,33,28,1,H,space,0.3032,,
,,,,,,,,,,,,,,,,WWA43,001,WWA43,2023-09-22_09h03.24.091,Trial go no go,2020.2.10,Win32,60,,,,,,,,,,,,,,,space,0,0,34,34,44,1,X,none,0.2636,,
,,,,,,,,,,,,,,,,WWA43,001,WWA43,2023-09-22_09h03.24.091,Trial go no go,2020.2.10,Win32,60,,,,,,,,,,,,,,,space,0,0,35,35,34,1,X,none,0.3521,,
,,,,,,,,,,,,,,,,WWA43,001,WWA43,2023-09-22_09h03.24.091,Trial go no go,2020.2.10,Win32,60,,,,,,,,,,,,,,,space,1,0,36,36,26,1,A,space,0.5315,,
,,,,,,,,,,,,,,,,WWA43,001,WWA43,2023-09-22_09h03.24.091,Trial go no go,2020.2.10,Win32,60,,,,,,,,,,,,,,,space,1,0,37,37,11,1,K,space,0.3317,,
,,,,,,,,,,,,,,,,WWA43,001,WWA43,2023-09-22_09h03.24.091,Trial go no go,2020.2.10,Win32,60,,,,,,,,,,,,,,,space,1,0,38,38,38,1,E,space,0.3227,,
,,,,,,,,,,,,,,,,WWA43,001,WWA43,2023-09-22_09h03.24.091,Trial go no go,2020.2.10,Win32,60,,,,,,,,,,,,,,,space,1,0,39,39,1,1,E,space,0.3002,,
,,,,,,,,,,,,,,,,WWA43,001,WWA43,2023-09-22_09h03.24.091,Trial go no go,2020.2.10,Win32,60,,,,,,,,,,,,,,,space,1,0,40,40,31,1,L,space,0.2719,,
,,,,,,,,,,,,,,,,WWA43,001,WWA43,2023-09-22_09h03.24.091,Trial go no go,2020.2.10,Win32,60,,,,,,,,,,,,,,,space,1,0,41,41,36,1,M,space,0.2655,,
,,,,,,,,,,,,,,,,WWA43,001,WWA43,2023-09-22_09h03.24.091,Trial go no go,2020.2.10,Win32,60,,,,,,,,,,,,,,,space,1,0,42,42,22,1,T,space,0.2872,,
,,,,,,,,,,,,,,,,WWA43,001,WWA43,2023-09-22_09h03.24.091,Trial go no go,2020.2.10,Win32,60,,,,,,,,,,,,,,,space,1,0,43,43,30,1,K,space,0.2999,,
,,,,,,,,,,,,,,,,WWA43,001,WWA43,2023-09-22_09h03.24.091,Trial go no go,2020.2.10,Win32,60,,,,,,,,,,,,,,,space,1,0,44,44,17,1,M,space,0.3009,,
,,,,,,,,,,,,,,,,WWA43,001,WWA43,2023-09-22_09h03.24.091,Trial go no go,2020.2.10,Win32,60,,,,,,,,,,,,,,,space,1,0,45,45,15,1,V,space,0.3877,,
,,,,,,,,,,,,,,,,WWA43,001,WWA43,2023-09-22_09h03.24.091,Trial go no go,2020.2.10,Win32,60,,,,,,,,,,,,,,,,1,0,46,46,29,1,X,none,,,
,,,,,,,,,,,,,,,,WWA43,001,WWA43,2023-09-22_09h03.24.091,Trial go no go,2020.2.10,Win32,60,,,,,,,,,,,,,,,,1,0,47,47,14,1,X,none,,,
,,,,,,,,,,,,,,,,WWA43,001,WWA43,2023-09-22_09h03.24.091,Trial go no go,2020.2.10,Win32,60,,,,,,,,,,,,,,,space,1,0,48,48,10,1,H,space,0.3462,,
,,,,,,,,,,,,,,,,WWA43,001,WWA43,2023-09-22_09h03.24.091,Trial go no go,2020.2.10,Win32,60,,,,,,,,,,,,,,,space,1,0,49,49,20,1,E,space,0.2879,,
,,,,,,,,,,,,,,,,WWA43,001,WWA43,2023-09-22_09h03.24.091,Trial go no go,2020.2.10,Win32,60,,,,,,,,,,,,,,,,,,,,,,,,,space,9.1781
