resp_Welcome.keys,resp_Welcome.rt,resp_Instr_Intro.keys,resp_Instr_Intro.rt,resp_Instr_Prac1.keys,resp_Instr_Prac1.rt,resp_trial_Prac1.keys,resp_trial_Prac1.corr,prac_trials.thisRepN,prac_trials.thisTrialN,prac_trials.thisN,prac_trials.thisIndex,prac_trials.ran,stimulus_prac1,corrAns_prac1,participant,session,indywidualny kod,date,expName,psychopyVersion,OS,frameRate,resp_trial_Prac1.rt,resp_Instr_Test1.keys,resp_Instr_Test1.rt,resp_trial_Test1.keys,resp_trial_Test1.corr,test1trial.thisRepN,test1trial.thisTrialN,test1trial.thisN,test1trial.thisIndex,test1trial.ran,stimulus_test1,corrAns_test1,resp_trial_Test1.rt,resp_Instr_Test2.keys,resp_Instr_Test2.rt,key_resp_Test2.keys,key_resp_Test2.corr,test2trial.thisRepN,test2trial.thisTrialN,test2trial.thisN,test2trial.thisIndex,test2trial.ran,stimulus_test2,corrAns_test2,key_resp_Test2.rt,resp_theEnd.keys,resp_theEnd.rt
space,11.5664,space,15.3449,space,8.3201,,0,0,0,0,7,1,X,space,WWA47,001,WWA47,2023-08-03_09h13.09.334,Trial go no go,2020.2.10,MacIntel,60,,,,,,,,,,,,,,,,,,,,,,,,,,,
,,,,,,space,1,0,1,1,5,1,X,space,WWA47,001,WWA47,2023-08-03_09h13.09.334,Trial go no go,2020.2.10,MacIntel,60,0.6583,,,,,,,,,,,,,,,,,,,,,,,,,,
,,,,,,space,1,0,2,2,8,1,X,space,WWA47,001,WWA47,2023-08-03_09h13.09.334,Trial go no go,2020.2.10,MacIntel,60,0.4105,,,,,,,,,,,,,,,,,,,,,,,,,,
,,,,,,space,1,0,3,3,10,1,X,space,WWA47,001,WWA47,2023-08-03_09h13.09.334,Trial go no go,2020.2.10,MacIntel,60,0.3542,,,,,,,,,,,,,,,,,,,,,,,,,,
,,,,,,space,1,0,4,4,13,1,X,space,WWA47,001,WWA47,2023-08-03_09h13.09.334,Trial go no go,2020.2.10,MacIntel,60,0.3666,,,,,,,,,,,,,,,,,,,,,,,,,,
,,,,,,space,0,0,5,5,9,1,V,none,WWA47,001,WWA47,2023-08-03_09h13.09.334,Trial go no go,2020.2.10,MacIntel,60,0.319,,,,,,,,,,,,,,,,,,,,,,,,,,
,,,,,,space,1,0,6,6,2,1,X,space,WWA47,001,WWA47,2023-08-03_09h13.09.334,Trial go no go,2020.2.10,MacIntel,60,0.5618,,,,,,,,,,,,,,,,,,,,,,,,,,
,,,,,,space,1,0,7,7,0,1,X,space,WWA47,001,WWA47,2023-08-03_09h13.09.334,Trial go no go,2020.2.10,MacIntel,60,0.3691,,,,,,,,,,,,,,,,,,,,,,,,,,
,,,,,,space,1,0,8,8,6,1,X,space,WWA47,001,WWA47,2023-08-03_09h13.09.334,Trial go no go,2020.2.10,MacIntel,60,0.374,,,,,,,,,,,,,,,,,,,,,,,,,,
,,,,,,space,1,0,9,9,1,1,X,space,WWA47,001,WWA47,2023-08-03_09h13.09.334,Trial go no go,2020.2.10,MacIntel,60,0.4188,,,,,,,,,,,,,,,,,,,,,,,,,,
,,,,,,space,1,0,10,10,3,1,X,space,WWA47,001,WWA47,2023-08-03_09h13.09.334,Trial go no go,2020.2.10,MacIntel,60,0.3679,,,,,,,,,,,,,,,,,,,,,,,,,,
,,,,,,space,1,0,11,11,11,1,X,space,WWA47,001,WWA47,2023-08-03_09h13.09.334,Trial go no go,2020.2.10,MacIntel,60,0.4373,,,,,,,,,,,,,,,,,,,,,,,,,,
,,,,,,,1,0,12,12,14,1,K,none,WWA47,001,WWA47,2023-08-03_09h13.09.334,Trial go no go,2020.2.10,MacIntel,60,,,,,,,,,,,,,,,,,,,,,,,,,,,
,,,,,,space,0,0,13,13,4,1,W,none,WWA47,001,WWA47,2023-08-03_09h13.09.334,Trial go no go,2020.2.10,MacIntel,60,0.4801,,,,,,,,,,,,,,,,,,,,,,,,,,
,,,,,,space,1,0,14,14,12,1,X,space,WWA47,001,WWA47,2023-08-03_09h13.09.334,Trial go no go,2020.2.10,MacIntel,60,0.5834,,,,,,,,,,,,,,,,,,,,,,,,,,
,,,,,,,,,,,,,,,WWA47,001,WWA47,2023-08-03_09h13.09.334,Trial go no go,2020.2.10,MacIntel,60,,space,2.6607,,0,0,0,0,47,1,X,space,,,,,,,,,,,,,,,
,,,,,,,,,,,,,,,WWA47,001,WWA47,2023-08-03_09h13.09.334,Trial go no go,2020.2.10,MacIntel,60,,,,space,1,0,1,1,3,1,X,space,0.4188,,,,,,,,,,,,,,
,,,,,,,,,,,,,,,WWA47,001,WWA47,2023-08-03_09h13.09.334,Trial go no go,2020.2.10,MacIntel,60,,,,,1,0,2,2,29,1,T,none,,,,,,,,,,,,,,,
,,,,,,,,,,,,,,,WWA47,001,WWA47,2023-08-03_09h13.09.334,Trial go no go,2020.2.10,MacIntel,60,,,,space,1,0,3,3,10,1,X,space,0.334,,,,,,,,,,,,,,
,,,,,,,,,,,,,,,WWA47,001,WWA47,2023-08-03_09h13.09.334,Trial go no go,2020.2.10,MacIntel,60,,,,space,1,0,4,4,32,1,X,space,0.4036,,,,,,,,,,,,,,
,,,,,,,,,,,,,,,WWA47,001,WWA47,2023-08-03_09h13.09.334,Trial go no go,2020.2.10,MacIntel,60,,,,space,1,0,5,5,8,1,X,space,0.3126,,,,,,,,,,,,,,
,,,,,,,,,,,,,,,WWA47,001,WWA47,2023-08-03_09h13.09.334,Trial go no go,2020.2.10,MacIntel,60,,,,space,1,0,6,6,43,1,X,space,0.3027,,,,,,,,,,,,,,
,,,,,,,,,,,,,,,WWA47,001,WWA47,2023-08-03_09h13.09.334,Trial go no go,2020.2.10,MacIntel,60,,,,space,1,0,7,7,33,1,X,space,0.3019,,,,,,,,,,,,,,
,,,,,,,,,,,,,,,WWA47,001,WWA47,2023-08-03_09h13.09.334,Trial go no go,2020.2.10,MacIntel,60,,,,space,1,0,8,8,26,1,X,space,0.3778,,,,,,,,,,,,,,
,,,,,,,,,,,,,,,WWA47,001,WWA47,2023-08-03_09h13.09.334,Trial go no go,2020.2.10,MacIntel,60,,,,space,1,0,9,9,36,1,X,space,0.3074,,,,,,,,,,,,,,
,,,,,,,,,,,,,,,WWA47,001,WWA47,2023-08-03_09h13.09.334,Trial go no go,2020.2.10,MacIntel,60,,,,space,1,0,10,10,12,1,X,space,0.2878,,,,,,,,,,,,,,
,,,,,,,,,,,,,,,WWA47,001,WWA47,2023-08-03_09h13.09.334,Trial go no go,2020.2.10,MacIntel,60,,,,space,1,0,11,11,45,1,X,space,0.2623,,,,,,,,,,,,,,
,,,,,,,,,,,,,,,WWA47,001,WWA47,2023-08-03_09h13.09.334,Trial go no go,2020.2.10,MacIntel,60,,,,space,1,0,12,12,42,1,X,space,0.2724,,,,,,,,,,,,,,
,,,,,,,,,,,,,,,WWA47,001,WWA47,2023-08-03_09h13.09.334,Trial go no go,2020.2.10,MacIntel,60,,,,space,1,0,13,13,35,1,X,space,0.3163,,,,,,,,,,,,,,
,,,,,,,,,,,,,,,WWA47,001,WWA47,2023-08-03_09h13.09.334,Trial go no go,2020.2.10,MacIntel,60,,,,space,0,0,14,14,4,1,V,none,0.3112,,,,,,,,,,,,,,
,,,,,,,,,,,,,,,WWA47,001,WWA47,2023-08-03_09h13.09.334,Trial go no go,2020.2.10,MacIntel,60,,,,,1,0,15,15,24,1,H,none,,,,,,,,,,,,,,,
,,,,,,,,,,,,,,,WWA47,001,WWA47,2023-08-03_09h13.09.334,Trial go no go,2020.2.10,MacIntel,60,,,,space,1,0,16,16,7,1,X,space,0.3363,,,,,,,,,,,,,,
,,,,,,,,,,,,,,,WWA47,001,WWA47,2023-08-03_09h13.09.334,Trial go no go,2020.2.10,MacIntel,60,,,,,1,0,17,17,34,1,N,none,,,,,,,,,,,,,,,
,,,,,,,,,,,,,,,WWA47,001,WWA47,2023-08-03_09h13.09.334,Trial go no go,2020.2.10,MacIntel,60,,,,space,1,0,18,18,13,1,X,space,0.2692,,,,,,,,,,,,,,
,,,,,,,,,,,,,,,WWA47,001,WWA47,2023-08-03_09h13.09.334,Trial go no go,2020.2.10,MacIntel,60,,,,space,1,0,19,19,16,1,X,space,0.3556,,,,,,,,,,,,,,
,,,,,,,,,,,,,,,WWA47,001,WWA47,2023-08-03_09h13.09.334,Trial go no go,2020.2.10,MacIntel,60,,,,space,1,0,20,20,31,1,X,space,0.3059,,,,,,,,,,,,,,
,,,,,,,,,,,,,,,WWA47,001,WWA47,2023-08-03_09h13.09.334,Trial go no go,2020.2.10,MacIntel,60,,,,space,0,0,21,21,49,1,E,none,0.3337,,,,,,,,,,,,,,
,,,,,,,,,,,,,,,WWA47,001,WWA47,2023-08-03_09h13.09.334,Trial go no go,2020.2.10,MacIntel,60,,,,,1,0,22,22,9,1,W,none,,,,,,,,,,,,,,,
,,,,,,,,,,,,,,,WWA47,001,WWA47,2023-08-03_09h13.09.334,Trial go no go,2020.2.10,MacIntel,60,,,,space,1,0,23,23,6,1,X,space,0.3334,,,,,,,,,,,,,,
,,,,,,,,,,,,,,,WWA47,001,WWA47,2023-08-03_09h13.09.334,Trial go no go,2020.2.10,MacIntel,60,,,,,1,0,24,24,39,1,M,none,,,,,,,,,,,,,,,
,,,,,,,,,,,,,,,WWA47,001,WWA47,2023-08-03_09h13.09.334,Trial go no go,2020.2.10,MacIntel,60,,,,space,1,0,25,25,28,1,X,space,0.2834,,,,,,,,,,,,,,
,,,,,,,,,,,,,,,WWA47,001,WWA47,2023-08-03_09h13.09.334,Trial go no go,2020.2.10,MacIntel,60,,,,,0,0,26,26,15,1,X,space,,,,,,,,,,,,,,,
,,,,,,,,,,,,,,,WWA47,001,WWA47,2023-08-03_09h13.09.334,Trial go no go,2020.2.10,MacIntel,60,,,,,1,0,27,27,44,1,F,none,,,,,,,,,,,,,,,
,,,,,,,,,,,,,,,WWA47,001,WWA47,2023-08-03_09h13.09.334,Trial go no go,2020.2.10,MacIntel,60,,,,space,1,0,28,28,20,1,X,space,0.2663,,,,,,,,,,,,,,
,,,,,,,,,,,,,,,WWA47,001,WWA47,2023-08-03_09h13.09.334,Trial go no go,2020.2.10,MacIntel,60,,,,space,1,0,29,29,11,1,X,space,0.355,,,,,,,,,,,,,,
,,,,,,,,,,,,,,,WWA47,001,WWA47,2023-08-03_09h13.09.334,Trial go no go,2020.2.10,MacIntel,60,,,,space,1,0,30,30,46,1,X,space,0.3016,,,,,,,,,,,,,,
,,,,,,,,,,,,,,,WWA47,001,WWA47,2023-08-03_09h13.09.334,Trial go no go,2020.2.10,MacIntel,60,,,,space,1,0,31,31,37,1,X,space,0.3019,,,,,,,,,,,,,,
,,,,,,,,,,,,,,,WWA47,001,WWA47,2023-08-03_09h13.09.334,Trial go no go,2020.2.10,MacIntel,60,,,,space,1,0,32,32,25,1,X,space,0.3679,,,,,,,,,,,,,,
,,,,,,,,,,,,,,,WWA47,001,WWA47,2023-08-03_09h13.09.334,Trial go no go,2020.2.10,MacIntel,60,,,,,1,0,33,33,14,1,Y,none,,,,,,,,,,,,,,,
,,,,,,,,,,,,,,,WWA47,001,WWA47,2023-08-03_09h13.09.334,Trial go no go,2020.2.10,MacIntel,60,,,,space,1,0,34,34,27,1,X,space,0.2812,,,,,,,,,,,,,,
,,,,,,,,,,,,,,,WWA47,001,WWA47,2023-08-03_09h13.09.334,Trial go no go,2020.2.10,MacIntel,60,,,,space,1,0,35,35,38,1,X,space,0.3038,,,,,,,,,,,,,,
,,,,,,,,,,,,,,,WWA47,001,WWA47,2023-08-03_09h13.09.334,Trial go no go,2020.2.10,MacIntel,60,,,,space,1,0,36,36,17,1,X,space,0.3082,,,,,,,,,,,,,,
,,,,,,,,,,,,,,,WWA47,001,WWA47,2023-08-03_09h13.09.334,Trial go no go,2020.2.10,MacIntel,60,,,,space,1,0,37,37,41,1,X,space,0.3301,,,,,,,,,,,,,,
,,,,,,,,,,,,,,,WWA47,001,WWA47,2023-08-03_09h13.09.334,Trial go no go,2020.2.10,MacIntel,60,,,,space,1,0,38,38,30,1,X,space,0.3005,,,,,,,,,,,,,,
,,,,,,,,,,,,,,,WWA47,001,WWA47,2023-08-03_09h13.09.334,Trial go no go,2020.2.10,MacIntel,60,,,,space,1,0,39,39,22,1,X,space,0.3196,,,,,,,,,,,,,,
,,,,,,,,,,,,,,,WWA47,001,WWA47,2023-08-03_09h13.09.334,Trial go no go,2020.2.10,MacIntel,60,,,,space,1,0,40,40,48,1,X,space,0.332,,,,,,,,,,,,,,
,,,,,,,,,,,,,,,WWA47,001,WWA47,2023-08-03_09h13.09.334,Trial go no go,2020.2.10,MacIntel,60,,,,space,1,0,41,41,21,1,X,space,0.3363,,,,,,,,,,,,,,
,,,,,,,,,,,,,,,WWA47,001,WWA47,2023-08-03_09h13.09.334,Trial go no go,2020.2.10,MacIntel,60,,,,,1,0,42,42,19,1,K,none,,,,,,,,,,,,,,,
,,,,,,,,,,,,,,,WWA47,001,WWA47,2023-08-03_09h13.09.334,Trial go no go,2020.2.10,MacIntel,60,,,,space,1,0,43,43,0,1,X,space,0.2993,,,,,,,,,,,,,,
,,,,,,,,,,,,,,,WWA47,001,WWA47,2023-08-03_09h13.09.334,Trial go no go,2020.2.10,MacIntel,60,,,,space,1,0,44,44,1,1,X,space,0.3783,,,,,,,,,,,,,,
,,,,,,,,,,,,,,,WWA47,001,WWA47,2023-08-03_09h13.09.334,Trial go no go,2020.2.10,MacIntel,60,,,,space,1,0,45,45,2,1,X,space,0.3031,,,,,,,,,,,,,,
,,,,,,,,,,,,,,,WWA47,001,WWA47,2023-08-03_09h13.09.334,Trial go no go,2020.2.10,MacIntel,60,,,,space,1,0,46,46,40,1,X,space,0.3085,,,,,,,,,,,,,,
,,,,,,,,,,,,,,,WWA47,001,WWA47,2023-08-03_09h13.09.334,Trial go no go,2020.2.10,MacIntel,60,,,,space,1,0,47,47,18,1,X,space,0.3574,,,,,,,,,,,,,,
,,,,,,,,,,,,,,,WWA47,001,WWA47,2023-08-03_09h13.09.334,Trial go no go,2020.2.10,MacIntel,60,,,,space,1,0,48,48,23,1,X,space,0.3362,,,,,,,,,,,,,,
,,,,,,,,,,,,,,,WWA47,001,WWA47,2023-08-03_09h13.09.334,Trial go no go,2020.2.10,MacIntel,60,,,,space,1,0,49,49,5,1,X,space,0.3376,,,,,,,,,,,,,,
,,,,,,,,,,,,,,,WWA47,001,WWA47,2023-08-03_09h13.09.334,Trial go no go,2020.2.10,MacIntel,60,,,,,,,,,,,,,,z,16.4692,,0,0,0,0,7,1,A,space,,,
,,,,,,,,,,,,,,,WWA47,001,WWA47,2023-08-03_09h13.09.334,Trial go no go,2020.2.10,MacIntel,60,,,,,,,,,,,,,,,,space,1,0,1,1,1,1,E,space,0.3492,,
,,,,,,,,,,,,,,,WWA47,001,WWA47,2023-08-03_09h13.09.334,Trial go no go,2020.2.10,MacIntel,60,,,,,,,,,,,,,,,,space,1,0,2,2,3,1,T,space,0.2897,,
,,,,,,,,,,,,,,,WWA47,001,WWA47,2023-08-03_09h13.09.334,Trial go no go,2020.2.10,MacIntel,60,,,,,,,,,,,,,,,,space,1,0,3,3,11,1,K,space,0.3534,,
,,,,,,,,,,,,,,,WWA47,001,WWA47,2023-08-03_09h13.09.334,Trial go no go,2020.2.10,MacIntel,60,,,,,,,,,,,,,,,,space,1,0,4,4,28,1,H,space,0.5144,,
,,,,,,,,,,,,,,,WWA47,001,WWA47,2023-08-03_09h13.09.334,Trial go no go,2020.2.10,MacIntel,60,,,,,,,,,,,,,,,,space,1,0,5,5,43,1,I,space,0.3885,,
,,,,,,,,,,,,,,,WWA47,001,WWA47,2023-08-03_09h13.09.334,Trial go no go,2020.2.10,MacIntel,60,,,,,,,,,,,,,,,,space,1,0,6,6,26,1,A,space,0.3294,,
,,,,,,,,,,,,,,,WWA47,001,WWA47,2023-08-03_09h13.09.334,Trial go no go,2020.2.10,MacIntel,60,,,,,,,,,,,,,,,,space,1,0,7,7,17,1,M,space,0.3501,,
,,,,,,,,,,,,,,,WWA47,001,WWA47,2023-08-03_09h13.09.334,Trial go no go,2020.2.10,MacIntel,60,,,,,,,,,,,,,,,,space,1,0,8,8,5,1,Y,space,0.2564,,
,,,,,,,,,,,,,,,WWA47,001,WWA47,2023-08-03_09h13.09.334,Trial go no go,2020.2.10,MacIntel,60,,,,,,,,,,,,,,,,space,1,0,9,9,21,1,R,space,0.2787,,
,,,,,,,,,,,,,,,WWA47,001,WWA47,2023-08-03_09h13.09.334,Trial go no go,2020.2.10,MacIntel,60,,,,,,,,,,,,,,,,space,0,0,10,10,14,1,X,none,0.2633,,
,,,,,,,,,,,,,,,WWA47,001,WWA47,2023-08-03_09h13.09.334,Trial go no go,2020.2.10,MacIntel,60,,,,,,,,,,,,,,,,space,1,0,11,11,15,1,V,space,0.3875,,
,,,,,,,,,,,,,,,WWA47,001,WWA47,2023-08-03_09h13.09.334,Trial go no go,2020.2.10,MacIntel,60,,,,,,,,,,,,,,,,space,1,0,12,12,36,1,M,space,0.2913,,
,,,,,,,,,,,,,,,WWA47,001,WWA47,2023-08-03_09h13.09.334,Trial go no go,2020.2.10,MacIntel,60,,,,,,,,,,,,,,,,space,1,0,13,13,6,1,I,space,0.3317,,
,,,,,,,,,,,,,,,WWA47,001,WWA47,2023-08-03_09h13.09.334,Trial go no go,2020.2.10,MacIntel,60,,,,,,,,,,,,,,,,space,1,0,14,14,40,1,R,space,0.2994,,
,,,,,,,,,,,,,,,WWA47,001,WWA47,2023-08-03_09h13.09.334,Trial go no go,2020.2.10,MacIntel,60,,,,,,,,,,,,,,,,space,0,0,15,15,19,1,X,none,0.2804,,
,,,,,,,,,,,,,,,WWA47,001,WWA47,2023-08-03_09h13.09.334,Trial go no go,2020.2.10,MacIntel,60,,,,,,,,,,,,,,,,space,1,0,16,16,2,1,R,space,0.4111,,
,,,,,,,,,,,,,,,WWA47,001,WWA47,2023-08-03_09h13.09.334,Trial go no go,2020.2.10,MacIntel,60,,,,,,,,,,,,,,,,space,0,0,17,17,4,1,X,none,0.2907,,
,,,,,,,,,,,,,,,WWA47,001,WWA47,2023-08-03_09h13.09.334,Trial go no go,2020.2.10,MacIntel,60,,,,,,,,,,,,,,,,space,1,0,18,18,42,1,Y,space,0.3797,,
,,,,,,,,,,,,,,,WWA47,001,WWA47,2023-08-03_09h13.09.334,Trial go no go,2020.2.10,MacIntel,60,,,,,,,,,,,,,,,,space,1,0,19,19,30,1,K,space,0.3637,,
,,,,,,,,,,,,,,,WWA47,001,WWA47,2023-08-03_09h13.09.334,Trial go no go,2020.2.10,MacIntel,60,,,,,,,,,,,,,,,,space,1,0,20,20,18,1,W,space,0.3533,,
,,,,,,,,,,,,,,,WWA47,001,WWA47,2023-08-03_09h13.09.334,Trial go no go,2020.2.10,MacIntel,60,,,,,,,,,,,,,,,,space,1,0,21,21,23,1,Y,space,0.4502,,
,,,,,,,,,,,,,,,WWA47,001,WWA47,2023-08-03_09h13.09.334,Trial go no go,2020.2.10,MacIntel,60,,,,,,,,,,,,,,,,space,0,0,22,22,9,1,X,none,0.3188,,
,,,,,,,,,,,,,,,WWA47,001,WWA47,2023-08-03_09h13.09.334,Trial go no go,2020.2.10,MacIntel,60,,,,,,,,,,,,,,,,space,1,0,23,23,16,1,N,space,0.2983,,
,,,,,,,,,,,,,,,WWA47,001,WWA47,2023-08-03_09h13.09.334,Trial go no go,2020.2.10,MacIntel,60,,,,,,,,,,,,,,,,space,1,0,24,24,8,1,F,space,0.4072,,
,,,,,,,,,,,,,,,WWA47,001,WWA47,2023-08-03_09h13.09.334,Trial go no go,2020.2.10,MacIntel,60,,,,,,,,,,,,,,,,space,1,0,25,25,38,1,E,space,0.3304,,
,,,,,,,,,,,,,,,WWA47,001,WWA47,2023-08-03_09h13.09.334,Trial go no go,2020.2.10,MacIntel,60,,,,,,,,,,,,,,,,space,1,0,26,26,33,1,V,space,0.3305,,
,,,,,,,,,,,,,,,WWA47,001,WWA47,2023-08-03_09h13.09.334,Trial go no go,2020.2.10,MacIntel,60,,,,,,,,,,,,,,,,space,1,0,27,27,37,1,W,space,0.3321,,
,,,,,,,,,,,,,,,WWA47,001,WWA47,2023-08-03_09h13.09.334,Trial go no go,2020.2.10,MacIntel,60,,,,,,,,,,,,,,,,,1,0,28,28,44,1,X,none,,,
,,,,,,,,,,,,,,,WWA47,001,WWA47,2023-08-03_09h13.09.334,Trial go no go,2020.2.10,MacIntel,60,,,,,,,,,,,,,,,,space,1,0,29,29,10,1,H,space,0.3657,,
,,,,,,,,,,,,,,,WWA47,001,WWA47,2023-08-03_09h13.09.334,Trial go no go,2020.2.10,MacIntel,60,,,,,,,,,,,,,,,,space,1,0,30,30,25,1,I,space,0.4061,,
,,,,,,,,,,,,,,,WWA47,001,WWA47,2023-08-03_09h13.09.334,Trial go no go,2020.2.10,MacIntel,60,,,,,,,,,,,,,,,,space,1,0,31,31,12,1,L,space,0.3117,,
,,,,,,,,,,,,,,,WWA47,001,WWA47,2023-08-03_09h13.09.334,Trial go no go,2020.2.10,MacIntel,60,,,,,,,,,,,,,,,,space,1,0,32,32,32,1,Z,space,0.284,,
,,,,,,,,,,,,,,,WWA47,001,WWA47,2023-08-03_09h13.09.334,Trial go no go,2020.2.10,MacIntel,60,,,,,,,,,,,,,,,,space,1,0,33,33,13,1,Z,space,0.3048,,
,,,,,,,,,,,,,,,WWA47,001,WWA47,2023-08-03_09h13.09.334,Trial go no go,2020.2.10,MacIntel,60,,,,,,,,,,,,,,,,space,1,0,34,34,47,1,H,space,0.2637,,
,,,,,,,,,,,,,,,WWA47,001,WWA47,2023-08-03_09h13.09.334,Trial go no go,2020.2.10,MacIntel,60,,,,,,,,,,,,,,,,space,1,0,35,35,35,1,N,space,0.2911,,
,,,,,,,,,,,,,,,WWA47,001,WWA47,2023-08-03_09h13.09.334,Trial go no go,2020.2.10,MacIntel,60,,,,,,,,,,,,,,,,space,1,0,36,36,0,1,W,space,0.2848,,
,,,,,,,,,,,,,,,WWA47,001,WWA47,2023-08-03_09h13.09.334,Trial go no go,2020.2.10,MacIntel,60,,,,,,,,,,,,,,,,space,1,0,37,37,41,1,T,space,0.3414,,
,,,,,,,,,,,,,,,WWA47,001,WWA47,2023-08-03_09h13.09.334,Trial go no go,2020.2.10,MacIntel,60,,,,,,,,,,,,,,,,space,1,0,38,38,45,1,A,space,0.3144,,
,,,,,,,,,,,,,,,WWA47,001,WWA47,2023-08-03_09h13.09.334,Trial go no go,2020.2.10,MacIntel,60,,,,,,,,,,,,,,,,,1,0,39,39,34,1,X,none,,,
,,,,,,,,,,,,,,,WWA47,001,WWA47,2023-08-03_09h13.09.334,Trial go no go,2020.2.10,MacIntel,60,,,,,,,,,,,,,,,,space,1,0,40,40,31,1,L,space,0.2983,,
,,,,,,,,,,,,,,,WWA47,001,WWA47,2023-08-03_09h13.09.334,Trial go no go,2020.2.10,MacIntel,60,,,,,,,,,,,,,,,,space,1,0,41,41,27,1,F,space,0.2988,,
,,,,,,,,,,,,,,,WWA47,001,WWA47,2023-08-03_09h13.09.334,Trial go no go,2020.2.10,MacIntel,60,,,,,,,,,,,,,,,,space,1,0,42,42,46,1,F,space,0.3262,,
,,,,,,,,,,,,,,,WWA47,001,WWA47,2023-08-03_09h13.09.334,Trial go no go,2020.2.10,MacIntel,60,,,,,,,,,,,,,,,,,1,0,43,43,24,1,X,none,,,
,,,,,,,,,,,,,,,WWA47,001,WWA47,2023-08-03_09h13.09.334,Trial go no go,2020.2.10,MacIntel,60,,,,,,,,,,,,,,,,space,0,0,44,44,49,1,X,none,0.3503,,
,,,,,,,,,,,,,,,WWA47,001,WWA47,2023-08-03_09h13.09.334,Trial go no go,2020.2.10,MacIntel,60,,,,,,,,,,,,,,,,space,1,0,45,45,48,1,K,space,0.3957,,
,,,,,,,,,,,,,,,WWA47,001,WWA47,2023-08-03_09h13.09.334,Trial go no go,2020.2.10,MacIntel,60,,,,,,,,,,,,,,,,,1,0,46,46,29,1,X,none,,,
,,,,,,,,,,,,,,,WWA47,001,WWA47,2023-08-03_09h13.09.334,Trial go no go,2020.2.10,MacIntel,60,,,,,,,,,,,,,,,,space,1,0,47,47,22,1,T,space,0.2833,,
,,,,,,,,,,,,,,,WWA47,001,WWA47,2023-08-03_09h13.09.334,Trial go no go,2020.2.10,MacIntel,60,,,,,,,,,,,,,,,,space,0,0,48,48,39,1,X,none,0.2868,,
,,,,,,,,,,,,,,,WWA47,001,WWA47,2023-08-03_09h13.09.334,Trial go no go,2020.2.10,MacIntel,60,,,,,,,,,,,,,,,,space,1,0,49,49,20,1,E,space,0.3836,,
,,,,,,,,,,,,,,,WWA47,001,WWA47,2023-08-03_09h13.09.334,Trial go no go,2020.2.10,MacIntel,60,,,,,,,,,,,,,,,,,,,,,,,,,,space,8.5884
