resp_Welcome.keys,resp_Welcome.rt,resp_Instr_Intro.keys,resp_Instr_Intro.rt,resp_Instr_Prac1.keys,resp_Instr_Prac1.rt,resp_trial_Prac1.keys,resp_trial_Prac1.corr,resp_trial_Prac1.rt,prac_trials.thisRepN,prac_trials.thisTrialN,prac_trials.thisN,prac_trials.thisIndex,prac_trials.ran,stimulus_prac1,corrAns_prac1,participant,session,indywidualny kod,date,expName,psychopyVersion,OS,frameRate,resp_Instr_Test1.keys,resp_Instr_Test1.rt,resp_trial_Test1.keys,resp_trial_Test1.corr,resp_trial_Test1.rt,test1trial.thisRepN,test1trial.thisTrialN,test1trial.thisN,test1trial.thisIndex,test1trial.ran,stimulus_test1,corrAns_test1,resp_Instr_Test2.keys,resp_Instr_Test2.rt,key_resp_Test2.keys,key_resp_Test2.corr,test2trial.thisRepN,test2trial.thisTrialN,test2trial.thisN,test2trial.thisIndex,test2trial.ran,stimulus_test2,corrAns_test2,resp_theEnd.keys,resp_theEnd.rt
space,11.0835,space,22.818,space,23.0883,space,1,0.4628,0,0,0,5,1,X,space,WWA69,001,WWA69,2023-11-09_10h45.58.295,Trial go no go,2020.2.10,MacIntel,60,,,,,,,,,,,,,,,,,,,,,,,,,
,,,,,,,1,,0,1,1,14,1,K,none,WWA69,001,WWA69,2023-11-09_10h45.58.295,Trial go no go,2020.2.10,MacIntel,60,,,,,,,,,,,,,,,,,,,,,,,,,
,,,,,,space,1,0.4156,0,2,2,2,1,X,space,WWA69,001,WWA69,2023-11-09_10h45.58.295,Trial go no go,2020.2.10,MacIntel,60,,,,,,,,,,,,,,,,,,,,,,,,,
,,,,,,,1,,0,3,3,9,1,V,none,WWA69,001,WWA69,2023-11-09_10h45.58.295,Trial go no go,2020.2.10,MacIntel,60,,,,,,,,,,,,,,,,,,,,,,,,,
,,,,,,space,1,0.4154,0,4,4,1,1,X,space,WWA69,001,WWA69,2023-11-09_10h45.58.295,Trial go no go,2020.2.10,MacIntel,60,,,,,,,,,,,,,,,,,,,,,,,,,
,,,,,,space,1,0.359,0,5,5,3,1,X,space,WWA69,001,WWA69,2023-11-09_10h45.58.295,Trial go no go,2020.2.10,MacIntel,60,,,,,,,,,,,,,,,,,,,,,,,,,
,,,,,,space,1,0.4361,0,6,6,7,1,X,space,WWA69,001,WWA69,2023-11-09_10h45.58.295,Trial go no go,2020.2.10,MacIntel,60,,,,,,,,,,,,,,,,,,,,,,,,,
,,,,,,,1,,0,7,7,4,1,W,none,WWA69,001,WWA69,2023-11-09_10h45.58.295,Trial go no go,2020.2.10,MacIntel,60,,,,,,,,,,,,,,,,,,,,,,,,,
,,,,,,space,1,0.3902,0,8,8,6,1,X,space,WWA69,001,WWA69,2023-11-09_10h45.58.295,Trial go no go,2020.2.10,MacIntel,60,,,,,,,,,,,,,,,,,,,,,,,,,
,,,,,,space,1,0.403,0,9,9,10,1,X,space,WWA69,001,WWA69,2023-11-09_10h45.58.295,Trial go no go,2020.2.10,MacIntel,60,,,,,,,,,,,,,,,,,,,,,,,,,
,,,,,,space,1,0.3707,0,10,10,13,1,X,space,WWA69,001,WWA69,2023-11-09_10h45.58.295,Trial go no go,2020.2.10,MacIntel,60,,,,,,,,,,,,,,,,,,,,,,,,,
,,,,,,space,1,0.4328,0,11,11,12,1,X,space,WWA69,001,WWA69,2023-11-09_10h45.58.295,Trial go no go,2020.2.10,MacIntel,60,,,,,,,,,,,,,,,,,,,,,,,,,
,,,,,,space,1,0.4437,0,12,12,0,1,X,space,WWA69,001,WWA69,2023-11-09_10h45.58.295,Trial go no go,2020.2.10,MacIntel,60,,,,,,,,,,,,,,,,,,,,,,,,,
,,,,,,space,1,0.351,0,13,13,11,1,X,space,WWA69,001,WWA69,2023-11-09_10h45.58.295,Trial go no go,2020.2.10,MacIntel,60,,,,,,,,,,,,,,,,,,,,,,,,,
,,,,,,space,1,0.4169,0,14,14,8,1,X,space,WWA69,001,WWA69,2023-11-09_10h45.58.295,Trial go no go,2020.2.10,MacIntel,60,,,,,,,,,,,,,,,,,,,,,,,,,
,,,,,,,,,,,,,,,,WWA69,001,WWA69,2023-11-09_10h45.58.295,Trial go no go,2020.2.10,MacIntel,60,space,10.9259,space,1,0.3765,0,0,0,25,1,X,space,,,,,,,,,,,,,
,,,,,,,,,,,,,,,,WWA69,001,WWA69,2023-11-09_10h45.58.295,Trial go no go,2020.2.10,MacIntel,60,,,space,1,0.4167,0,1,1,31,1,X,space,,,,,,,,,,,,,
,,,,,,,,,,,,,,,,WWA69,001,WWA69,2023-11-09_10h45.58.295,Trial go no go,2020.2.10,MacIntel,60,,,space,1,0.2578,0,2,2,17,1,X,space,,,,,,,,,,,,,
,,,,,,,,,,,,,,,,WWA69,001,WWA69,2023-11-09_10h45.58.295,Trial go no go,2020.2.10,MacIntel,60,,,space,1,0.2687,0,3,3,0,1,X,space,,,,,,,,,,,,,
,,,,,,,,,,,,,,,,WWA69,001,WWA69,2023-11-09_10h45.58.295,Trial go no go,2020.2.10,MacIntel,60,,,space,1,0.3214,0,4,4,27,1,X,space,,,,,,,,,,,,,
,,,,,,,,,,,,,,,,WWA69,001,WWA69,2023-11-09_10h45.58.295,Trial go no go,2020.2.10,MacIntel,60,,,space,1,0.3017,0,5,5,43,1,X,space,,,,,,,,,,,,,
,,,,,,,,,,,,,,,,WWA69,001,WWA69,2023-11-09_10h45.58.295,Trial go no go,2020.2.10,MacIntel,60,,,space,1,0.3347,0,6,6,13,1,X,space,,,,,,,,,,,,,
,,,,,,,,,,,,,,,,WWA69,001,WWA69,2023-11-09_10h45.58.295,Trial go no go,2020.2.10,MacIntel,60,,,space,1,0.3186,0,7,7,41,1,X,space,,,,,,,,,,,,,
,,,,,,,,,,,,,,,,WWA69,001,WWA69,2023-11-09_10h45.58.295,Trial go no go,2020.2.10,MacIntel,60,,,space,1,0.402,0,8,8,5,1,X,space,,,,,,,,,,,,,
,,,,,,,,,,,,,,,,WWA69,001,WWA69,2023-11-09_10h45.58.295,Trial go no go,2020.2.10,MacIntel,60,,,space,1,0.2716,0,9,9,38,1,X,space,,,,,,,,,,,,,
,,,,,,,,,,,,,,,,WWA69,001,WWA69,2023-11-09_10h45.58.295,Trial go no go,2020.2.10,MacIntel,60,,,space,0,0.2382,0,10,10,9,1,W,none,,,,,,,,,,,,,
,,,,,,,,,,,,,,,,WWA69,001,WWA69,2023-11-09_10h45.58.295,Trial go no go,2020.2.10,MacIntel,60,,,space,1,0.3443,0,11,11,22,1,X,space,,,,,,,,,,,,,
,,,,,,,,,,,,,,,,WWA69,001,WWA69,2023-11-09_10h45.58.295,Trial go no go,2020.2.10,MacIntel,60,,,space,1,0.2685,0,12,12,15,1,X,space,,,,,,,,,,,,,
,,,,,,,,,,,,,,,,WWA69,001,WWA69,2023-11-09_10h45.58.295,Trial go no go,2020.2.10,MacIntel,60,,,space,0,0.2783,0,13,13,4,1,V,none,,,,,,,,,,,,,
,,,,,,,,,,,,,,,,WWA69,001,WWA69,2023-11-09_10h45.58.295,Trial go no go,2020.2.10,MacIntel,60,,,space,1,0.4318,0,14,14,12,1,X,space,,,,,,,,,,,,,
,,,,,,,,,,,,,,,,WWA69,001,WWA69,2023-11-09_10h45.58.295,Trial go no go,2020.2.10,MacIntel,60,,,space,1,0.258,0,15,15,48,1,X,space,,,,,,,,,,,,,
,,,,,,,,,,,,,,,,WWA69,001,WWA69,2023-11-09_10h45.58.295,Trial go no go,2020.2.10,MacIntel,60,,,space,1,0.2734,0,16,16,28,1,X,space,,,,,,,,,,,,,
,,,,,,,,,,,,,,,,WWA69,001,WWA69,2023-11-09_10h45.58.295,Trial go no go,2020.2.10,MacIntel,60,,,,1,,0,17,17,49,1,E,none,,,,,,,,,,,,,
,,,,,,,,,,,,,,,,WWA69,001,WWA69,2023-11-09_10h45.58.295,Trial go no go,2020.2.10,MacIntel,60,,,space,1,0.297,0,18,18,18,1,X,space,,,,,,,,,,,,,
,,,,,,,,,,,,,,,,WWA69,001,WWA69,2023-11-09_10h45.58.295,Trial go no go,2020.2.10,MacIntel,60,,,space,1,0.3626,0,19,19,26,1,X,space,,,,,,,,,,,,,
,,,,,,,,,,,,,,,,WWA69,001,WWA69,2023-11-09_10h45.58.295,Trial go no go,2020.2.10,MacIntel,60,,,space,1,0.2807,0,20,20,33,1,X,space,,,,,,,,,,,,,
,,,,,,,,,,,,,,,,WWA69,001,WWA69,2023-11-09_10h45.58.295,Trial go no go,2020.2.10,MacIntel,60,,,,1,,0,21,21,44,1,F,none,,,,,,,,,,,,,
,,,,,,,,,,,,,,,,WWA69,001,WWA69,2023-11-09_10h45.58.295,Trial go no go,2020.2.10,MacIntel,60,,,space,1,0.1324,0,22,22,37,1,X,space,,,,,,,,,,,,,
,,,,,,,,,,,,,,,,WWA69,001,WWA69,2023-11-09_10h45.58.295,Trial go no go,2020.2.10,MacIntel,60,,,space,1,0.2917,0,23,23,46,1,X,space,,,,,,,,,,,,,
,,,,,,,,,,,,,,,,WWA69,001,WWA69,2023-11-09_10h45.58.295,Trial go no go,2020.2.10,MacIntel,60,,,space,1,0.3829,0,24,24,11,1,X,space,,,,,,,,,,,,,
,,,,,,,,,,,,,,,,WWA69,001,WWA69,2023-11-09_10h45.58.295,Trial go no go,2020.2.10,MacIntel,60,,,space,1,0.247,0,25,25,1,1,X,space,,,,,,,,,,,,,
,,,,,,,,,,,,,,,,WWA69,001,WWA69,2023-11-09_10h45.58.295,Trial go no go,2020.2.10,MacIntel,60,,,space,1,0.2181,0,26,26,3,1,X,space,,,,,,,,,,,,,
,,,,,,,,,,,,,,,,WWA69,001,WWA69,2023-11-09_10h45.58.295,Trial go no go,2020.2.10,MacIntel,60,,,space,1,0.2211,0,27,27,20,1,X,space,,,,,,,,,,,,,
,,,,,,,,,,,,,,,,WWA69,001,WWA69,2023-11-09_10h45.58.295,Trial go no go,2020.2.10,MacIntel,60,,,space,0,0.2869,0,28,28,29,1,T,none,,,,,,,,,,,,,
,,,,,,,,,,,,,,,,WWA69,001,WWA69,2023-11-09_10h45.58.295,Trial go no go,2020.2.10,MacIntel,60,,,space,1,0.4855,0,29,29,10,1,X,space,,,,,,,,,,,,,
,,,,,,,,,,,,,,,,WWA69,001,WWA69,2023-11-09_10h45.58.295,Trial go no go,2020.2.10,MacIntel,60,,,space,1,0.2667,0,30,30,23,1,X,space,,,,,,,,,,,,,
,,,,,,,,,,,,,,,,WWA69,001,WWA69,2023-11-09_10h45.58.295,Trial go no go,2020.2.10,MacIntel,60,,,space,1,0.2529,0,31,31,7,1,X,space,,,,,,,,,,,,,
,,,,,,,,,,,,,,,,WWA69,001,WWA69,2023-11-09_10h45.58.295,Trial go no go,2020.2.10,MacIntel,60,,,,1,,0,32,32,19,1,K,none,,,,,,,,,,,,,
,,,,,,,,,,,,,,,,WWA69,001,WWA69,2023-11-09_10h45.58.295,Trial go no go,2020.2.10,MacIntel,60,,,space,1,0.2593,0,33,33,2,1,X,space,,,,,,,,,,,,,
,,,,,,,,,,,,,,,,WWA69,001,WWA69,2023-11-09_10h45.58.295,Trial go no go,2020.2.10,MacIntel,60,,,space,1,0.4029,0,34,34,16,1,X,space,,,,,,,,,,,,,
,,,,,,,,,,,,,,,,WWA69,001,WWA69,2023-11-09_10h45.58.295,Trial go no go,2020.2.10,MacIntel,60,,,space,1,0.2339,0,35,35,47,1,X,space,,,,,,,,,,,,,
,,,,,,,,,,,,,,,,WWA69,001,WWA69,2023-11-09_10h45.58.295,Trial go no go,2020.2.10,MacIntel,60,,,space,1,0.2869,0,36,36,42,1,X,space,,,,,,,,,,,,,
,,,,,,,,,,,,,,,,WWA69,001,WWA69,2023-11-09_10h45.58.295,Trial go no go,2020.2.10,MacIntel,60,,,space,1,0.2396,0,37,37,30,1,X,space,,,,,,,,,,,,,
,,,,,,,,,,,,,,,,WWA69,001,WWA69,2023-11-09_10h45.58.295,Trial go no go,2020.2.10,MacIntel,60,,,space,0,0.2976,0,38,38,34,1,N,none,,,,,,,,,,,,,
,,,,,,,,,,,,,,,,WWA69,001,WWA69,2023-11-09_10h45.58.295,Trial go no go,2020.2.10,MacIntel,60,,,space,1,0.3797,0,39,39,40,1,X,space,,,,,,,,,,,,,
,,,,,,,,,,,,,,,,WWA69,001,WWA69,2023-11-09_10h45.58.295,Trial go no go,2020.2.10,MacIntel,60,,,space,1,0.2413,0,40,40,36,1,X,space,,,,,,,,,,,,,
,,,,,,,,,,,,,,,,WWA69,001,WWA69,2023-11-09_10h45.58.295,Trial go no go,2020.2.10,MacIntel,60,,,space,1,0.3617,0,41,41,6,1,X,space,,,,,,,,,,,,,
,,,,,,,,,,,,,,,,WWA69,001,WWA69,2023-11-09_10h45.58.295,Trial go no go,2020.2.10,MacIntel,60,,,space,1,0.3043,0,42,42,35,1,X,space,,,,,,,,,,,,,
,,,,,,,,,,,,,,,,WWA69,001,WWA69,2023-11-09_10h45.58.295,Trial go no go,2020.2.10,MacIntel,60,,,space,0,0.2791,0,43,43,14,1,Y,none,,,,,,,,,,,,,
,,,,,,,,,,,,,,,,WWA69,001,WWA69,2023-11-09_10h45.58.295,Trial go no go,2020.2.10,MacIntel,60,,,space,0,0.3086,0,44,44,24,1,H,none,,,,,,,,,,,,,
,,,,,,,,,,,,,,,,WWA69,001,WWA69,2023-11-09_10h45.58.295,Trial go no go,2020.2.10,MacIntel,60,,,space,1,0.4121,0,45,45,21,1,X,space,,,,,,,,,,,,,
,,,,,,,,,,,,,,,,WWA69,001,WWA69,2023-11-09_10h45.58.295,Trial go no go,2020.2.10,MacIntel,60,,,,1,,0,46,46,39,1,M,none,,,,,,,,,,,,,
,,,,,,,,,,,,,,,,WWA69,001,WWA69,2023-11-09_10h45.58.295,Trial go no go,2020.2.10,MacIntel,60,,,space,1,0.3488,0,47,47,45,1,X,space,,,,,,,,,,,,,
,,,,,,,,,,,,,,,,WWA69,001,WWA69,2023-11-09_10h45.58.295,Trial go no go,2020.2.10,MacIntel,60,,,space,1,0.3342,0,48,48,8,1,X,space,,,,,,,,,,,,,
,,,,,,,,,,,,,,,,WWA69,001,WWA69,2023-11-09_10h45.58.295,Trial go no go,2020.2.10,MacIntel,60,,,space,1,0.2452,0,49,49,32,1,X,space,,,,,,,,,,,,,
,,,,,,,,,,,,,,,,WWA69,001,WWA69,2023-11-09_10h45.58.295,Trial go no go,2020.2.10,MacIntel,60,,,,,,,,,,,,,z,21.7527,,0,0,0,0,17,1,M,space,,
,,,,,,,,,,,,,,,,WWA69,001,WWA69,2023-11-09_10h45.58.295,Trial go no go,2020.2.10,MacIntel,60,,,,,,,,,,,,,,,,0,0,1,1,28,1,H,space,,
,,,,,,,,,,,,,,,,WWA69,001,WWA69,2023-11-09_10h45.58.295,Trial go no go,2020.2.10,MacIntel,60,,,,,,,,,,,,,,,,0,0,2,2,48,1,K,space,,
,,,,,,,,,,,,,,,,WWA69,001,WWA69,2023-11-09_10h45.58.295,Trial go no go,2020.2.10,MacIntel,60,,,,,,,,,,,,,,,,0,0,3,3,1,1,E,space,,
,,,,,,,,,,,,,,,,WWA69,001,WWA69,2023-11-09_10h45.58.295,Trial go no go,2020.2.10,MacIntel,60,,,,,,,,,,,,,,,,0,0,4,4,38,1,E,space,,
,,,,,,,,,,,,,,,,WWA69,001,WWA69,2023-11-09_10h45.58.295,Trial go no go,2020.2.10,MacIntel,60,,,,,,,,,,,,,,,,0,0,5,5,12,1,L,space,,
,,,,,,,,,,,,,,,,WWA69,001,WWA69,2023-11-09_10h45.58.295,Trial go no go,2020.2.10,MacIntel,60,,,,,,,,,,,,,,,,1,0,6,6,9,1,X,none,,
,,,,,,,,,,,,,,,,WWA69,001,WWA69,2023-11-09_10h45.58.295,Trial go no go,2020.2.10,MacIntel,60,,,,,,,,,,,,,,,,0,0,7,7,42,1,Y,space,,
,,,,,,,,,,,,,,,,WWA69,001,WWA69,2023-11-09_10h45.58.295,Trial go no go,2020.2.10,MacIntel,60,,,,,,,,,,,,,,,,0,0,8,8,37,1,W,space,,
,,,,,,,,,,,,,,,,WWA69,001,WWA69,2023-11-09_10h45.58.295,Trial go no go,2020.2.10,MacIntel,60,,,,,,,,,,,,,,,,0,0,9,9,33,1,V,space,,
,,,,,,,,,,,,,,,,WWA69,001,WWA69,2023-11-09_10h45.58.295,Trial go no go,2020.2.10,MacIntel,60,,,,,,,,,,,,,,,,0,0,10,10,47,1,H,space,,
,,,,,,,,,,,,,,,,WWA69,001,WWA69,2023-11-09_10h45.58.295,Trial go no go,2020.2.10,MacIntel,60,,,,,,,,,,,,,,,,0,0,11,11,22,1,T,space,,
,,,,,,,,,,,,,,,,WWA69,001,WWA69,2023-11-09_10h45.58.295,Trial go no go,2020.2.10,MacIntel,60,,,,,,,,,,,,,,,,0,0,12,12,32,1,Z,space,,
,,,,,,,,,,,,,,,,WWA69,001,WWA69,2023-11-09_10h45.58.295,Trial go no go,2020.2.10,MacIntel,60,,,,,,,,,,,,,,,,0,0,13,13,3,1,T,space,,
,,,,,,,,,,,,,,,,WWA69,001,WWA69,2023-11-09_10h45.58.295,Trial go no go,2020.2.10,MacIntel,60,,,,,,,,,,,,,,,,0,0,14,14,7,1,A,space,,
,,,,,,,,,,,,,,,,WWA69,001,WWA69,2023-11-09_10h45.58.295,Trial go no go,2020.2.10,MacIntel,60,,,,,,,,,,,,,,,,0,0,15,15,18,1,W,space,,
,,,,,,,,,,,,,,,,WWA69,001,WWA69,2023-11-09_10h45.58.295,Trial go no go,2020.2.10,MacIntel,60,,,,,,,,,,,,,,,,0,0,16,16,8,1,F,space,,
,,,,,,,,,,,,,,,,WWA69,001,WWA69,2023-11-09_10h45.58.295,Trial go no go,2020.2.10,MacIntel,60,,,,,,,,,,,,,,,,0,0,17,17,43,1,I,space,,
,,,,,,,,,,,,,,,,WWA69,001,WWA69,2023-11-09_10h45.58.295,Trial go no go,2020.2.10,MacIntel,60,,,,,,,,,,,,,,,,0,0,18,18,26,1,A,space,,
,,,,,,,,,,,,,,,,WWA69,001,WWA69,2023-11-09_10h45.58.295,Trial go no go,2020.2.10,MacIntel,60,,,,,,,,,,,,,,,,0,0,19,19,5,1,Y,space,,
,,,,,,,,,,,,,,,,WWA69,001,WWA69,2023-11-09_10h45.58.295,Trial go no go,2020.2.10,MacIntel,60,,,,,,,,,,,,,,,,1,0,20,20,34,1,X,none,,
,,,,,,,,,,,,,,,,WWA69,001,WWA69,2023-11-09_10h45.58.295,Trial go no go,2020.2.10,MacIntel,60,,,,,,,,,,,,,,,,1,0,21,21,14,1,X,none,,
,,,,,,,,,,,,,,,,WWA69,001,WWA69,2023-11-09_10h45.58.295,Trial go no go,2020.2.10,MacIntel,60,,,,,,,,,,,,,,,,0,0,22,22,15,1,V,space,,
,,,,,,,,,,,,,,,,WWA69,001,WWA69,2023-11-09_10h45.58.295,Trial go no go,2020.2.10,MacIntel,60,,,,,,,,,,,,,,,,1,0,23,23,19,1,X,none,,
,,,,,,,,,,,,,,,,WWA69,001,WWA69,2023-11-09_10h45.58.295,Trial go no go,2020.2.10,MacIntel,60,,,,,,,,,,,,,,,,1,0,24,24,49,1,X,none,,
,,,,,,,,,,,,,,,,WWA69,001,WWA69,2023-11-09_10h45.58.295,Trial go no go,2020.2.10,MacIntel,60,,,,,,,,,,,,,,,,1,0,25,25,29,1,X,none,,
,,,,,,,,,,,,,,,,WWA69,001,WWA69,2023-11-09_10h45.58.295,Trial go no go,2020.2.10,MacIntel,60,,,,,,,,,,,,,,,,0,0,26,26,27,1,F,space,,
,,,,,,,,,,,,,,,,WWA69,001,WWA69,2023-11-09_10h45.58.295,Trial go no go,2020.2.10,MacIntel,60,,,,,,,,,,,,,,,,0,0,27,27,13,1,Z,space,,
,,,,,,,,,,,,,,,,WWA69,001,WWA69,2023-11-09_10h45.58.295,Trial go no go,2020.2.10,MacIntel,60,,,,,,,,,,,,,,,,0,0,28,28,45,1,A,space,,
,,,,,,,,,,,,,,,,WWA69,001,WWA69,2023-11-09_10h45.58.295,Trial go no go,2020.2.10,MacIntel,60,,,,,,,,,,,,,,,,0,0,29,29,46,1,F,space,,
,,,,,,,,,,,,,,,,WWA69,001,WWA69,2023-11-09_10h45.58.295,Trial go no go,2020.2.10,MacIntel,60,,,,,,,,,,,,,,,,0,0,30,30,21,1,R,space,,
,,,,,,,,,,,,,,,,WWA69,001,WWA69,2023-11-09_10h45.58.295,Trial go no go,2020.2.10,MacIntel,60,,,,,,,,,,,,,,,,0,0,31,31,25,1,I,space,,
,,,,,,,,,,,,,,,,WWA69,001,WWA69,2023-11-09_10h45.58.295,Trial go no go,2020.2.10,MacIntel,60,,,,,,,,,,,,,,,,0,0,32,32,6,1,I,space,,
,,,,,,,,,,,,,,,,WWA69,001,WWA69,2023-11-09_10h45.58.295,Trial go no go,2020.2.10,MacIntel,60,,,,,,,,,,,,,,,,0,0,33,33,20,1,E,space,,
,,,,,,,,,,,,,,,,WWA69,001,WWA69,2023-11-09_10h45.58.295,Trial go no go,2020.2.10,MacIntel,60,,,,,,,,,,,,,,,,0,0,34,34,30,1,K,space,,
,,,,,,,,,,,,,,,,WWA69,001,WWA69,2023-11-09_10h45.58.295,Trial go no go,2020.2.10,MacIntel,60,,,,,,,,,,,,,,,,0,0,35,35,2,1,R,space,,
,,,,,,,,,,,,,,,,WWA69,001,WWA69,2023-11-09_10h45.58.295,Trial go no go,2020.2.10,MacIntel,60,,,,,,,,,,,,,,,,0,0,36,36,10,1,H,space,,
,,,,,,,,,,,,,,,,WWA69,001,WWA69,2023-11-09_10h45.58.295,Trial go no go,2020.2.10,MacIntel,60,,,,,,,,,,,,,,,,0,0,37,37,23,1,Y,space,,
,,,,,,,,,,,,,,,,WWA69,001,WWA69,2023-11-09_10h45.58.295,Trial go no go,2020.2.10,MacIntel,60,,,,,,,,,,,,,,,,0,0,38,38,11,1,K,space,,
,,,,,,,,,,,,,,,,WWA69,001,WWA69,2023-11-09_10h45.58.295,Trial go no go,2020.2.10,MacIntel,60,,,,,,,,,,,,,,,,0,0,39,39,31,1,L,space,,
,,,,,,,,,,,,,,,,WWA69,001,WWA69,2023-11-09_10h45.58.295,Trial go no go,2020.2.10,MacIntel,60,,,,,,,,,,,,,,,,0,0,40,40,41,1,T,space,,
,,,,,,,,,,,,,,,,WWA69,001,WWA69,2023-11-09_10h45.58.295,Trial go no go,2020.2.10,MacIntel,60,,,,,,,,,,,,,,,,1,0,41,41,44,1,X,none,,
,,,,,,,,,,,,,,,,WWA69,001,WWA69,2023-11-09_10h45.58.295,Trial go no go,2020.2.10,MacIntel,60,,,,,,,,,,,,,,,,0,0,42,42,36,1,M,space,,
,,,,,,,,,,,,,,,,WWA69,001,WWA69,2023-11-09_10h45.58.295,Trial go no go,2020.2.10,MacIntel,60,,,,,,,,,,,,,,,,1,0,43,43,39,1,X,none,,
,,,,,,,,,,,,,,,,WWA69,001,WWA69,2023-11-09_10h45.58.295,Trial go no go,2020.2.10,MacIntel,60,,,,,,,,,,,,,,,,1,0,44,44,24,1,X,none,,
,,,,,,,,,,,,,,,,WWA69,001,WWA69,2023-11-09_10h45.58.295,Trial go no go,2020.2.10,MacIntel,60,,,,,,,,,,,,,,,,0,0,45,45,35,1,N,space,,
,,,,,,,,,,,,,,,,WWA69,001,WWA69,2023-11-09_10h45.58.295,Trial go no go,2020.2.10,MacIntel,60,,,,,,,,,,,,,,,,0,0,46,46,16,1,N,space,,
,,,,,,,,,,,,,,,,WWA69,001,WWA69,2023-11-09_10h45.58.295,Trial go no go,2020.2.10,MacIntel,60,,,,,,,,,,,,,,,,0,0,47,47,0,1,W,space,,
,,,,,,,,,,,,,,,,WWA69,001,WWA69,2023-11-09_10h45.58.295,Trial go no go,2020.2.10,MacIntel,60,,,,,,,,,,,,,,,,0,0,48,48,40,1,R,space,,
,,,,,,,,,,,,,,,,WWA69,001,WWA69,2023-11-09_10h45.58.295,Trial go no go,2020.2.10,MacIntel,60,,,,,,,,,,,,,,,,1,0,49,49,4,1,X,none,,
,,,,,,,,,,,,,,,,WWA69,001,WWA69,2023-11-09_10h45.58.295,Trial go no go,2020.2.10,MacIntel,60,,,,,,,,,,,,,,,,,,,,,,,,space,9.7188
