resp_Welcome.keys,resp_Welcome.rt,resp_Instr_Intro.keys,resp_Instr_Intro.rt,resp_Instr_Prac1.keys,resp_Instr_Prac1.rt,resp_trial_Prac1.keys,resp_trial_Prac1.corr,prac_trials.thisRepN,prac_trials.thisTrialN,prac_trials.thisN,prac_trials.thisIndex,prac_trials.ran,stimulus_prac1,corrAns_prac1,participant,session,indywidualny kod,date,expName,psychopyVersion,OS,frameRate,resp_trial_Prac1.rt,resp_Instr_Test1.keys,resp_Instr_Test1.rt,resp_trial_Test1.keys,resp_trial_Test1.corr,test1trial.thisRepN,test1trial.thisTrialN,test1trial.thisN,test1trial.thisIndex,test1trial.ran,stimulus_test1,corrAns_test1,resp_trial_Test1.rt,resp_Instr_Test2.keys,resp_Instr_Test2.rt,key_resp_Test2.keys,key_resp_Test2.corr,key_resp_Test2.rt,test2trial.thisRepN,test2trial.thisTrialN,test2trial.thisN,test2trial.thisIndex,test2trial.ran,stimulus_test2,corrAns_test2,resp_theEnd.keys,resp_theEnd.rt
space,10.3875,space,18.0689,space,8.3055,,1,0,0,0,9,1,V,none,WWA65,001,WWA65,2023-10-27_12h21.38.449,Trial go no go,2020.2.10,MacIntel,60,,,,,,,,,,,,,,,,,,,,,,,,,,,
,,,,,,space,1,0,1,1,1,1,X,space,WWA65,001,WWA65,2023-10-27_12h21.38.449,Trial go no go,2020.2.10,MacIntel,60,0.6053,,,,,,,,,,,,,,,,,,,,,,,,,,
,,,,,,space,1,0,2,2,5,1,X,space,WWA65,001,WWA65,2023-10-27_12h21.38.449,Trial go no go,2020.2.10,MacIntel,60,0.5786,,,,,,,,,,,,,,,,,,,,,,,,,,
,,,,,,space,0,0,3,3,4,1,W,none,WWA65,001,WWA65,2023-10-27_12h21.38.449,Trial go no go,2020.2.10,MacIntel,60,0.4389,,,,,,,,,,,,,,,,,,,,,,,,,,
,,,,,,space,1,0,4,4,0,1,X,space,WWA65,001,WWA65,2023-10-27_12h21.38.449,Trial go no go,2020.2.10,MacIntel,60,0.6004,,,,,,,,,,,,,,,,,,,,,,,,,,
,,,,,,space,1,0,5,5,8,1,X,space,WWA65,001,WWA65,2023-10-27_12h21.38.449,Trial go no go,2020.2.10,MacIntel,60,0.6359,,,,,,,,,,,,,,,,,,,,,,,,,,
,,,,,,space,1,0,6,6,13,1,X,space,WWA65,001,WWA65,2023-10-27_12h21.38.449,Trial go no go,2020.2.10,MacIntel,60,0.5563,,,,,,,,,,,,,,,,,,,,,,,,,,
,,,,,,space,1,0,7,7,10,1,X,space,WWA65,001,WWA65,2023-10-27_12h21.38.449,Trial go no go,2020.2.10,MacIntel,60,0.5528,,,,,,,,,,,,,,,,,,,,,,,,,,
,,,,,,space,1,0,8,8,12,1,X,space,WWA65,001,WWA65,2023-10-27_12h21.38.449,Trial go no go,2020.2.10,MacIntel,60,0.4909,,,,,,,,,,,,,,,,,,,,,,,,,,
,,,,,,space,1,0,9,9,2,1,X,space,WWA65,001,WWA65,2023-10-27_12h21.38.449,Trial go no go,2020.2.10,MacIntel,60,0.4725,,,,,,,,,,,,,,,,,,,,,,,,,,
,,,,,,space,1,0,10,10,3,1,X,space,WWA65,001,WWA65,2023-10-27_12h21.38.449,Trial go no go,2020.2.10,MacIntel,60,0.4543,,,,,,,,,,,,,,,,,,,,,,,,,,
,,,,,,space,1,0,11,11,11,1,X,space,WWA65,001,WWA65,2023-10-27_12h21.38.449,Trial go no go,2020.2.10,MacIntel,60,0.4568,,,,,,,,,,,,,,,,,,,,,,,,,,
,,,,,,,1,0,12,12,14,1,K,none,WWA65,001,WWA65,2023-10-27_12h21.38.449,Trial go no go,2020.2.10,MacIntel,60,,,,,,,,,,,,,,,,,,,,,,,,,,,
,,,,,,space,1,0,13,13,6,1,X,space,WWA65,001,WWA65,2023-10-27_12h21.38.449,Trial go no go,2020.2.10,MacIntel,60,0.652,,,,,,,,,,,,,,,,,,,,,,,,,,
,,,,,,space,1,0,14,14,7,1,X,space,WWA65,001,WWA65,2023-10-27_12h21.38.449,Trial go no go,2020.2.10,MacIntel,60,0.4686,,,,,,,,,,,,,,,,,,,,,,,,,,
,,,,,,,,,,,,,,,WWA65,001,WWA65,2023-10-27_12h21.38.449,Trial go no go,2020.2.10,MacIntel,60,,space,7.387,,1,0,0,0,24,1,H,none,,,,,,,,,,,,,,,
,,,,,,,,,,,,,,,WWA65,001,WWA65,2023-10-27_12h21.38.449,Trial go no go,2020.2.10,MacIntel,60,,,,space,1,0,1,1,10,1,X,space,0.4279,,,,,,,,,,,,,,
,,,,,,,,,,,,,,,WWA65,001,WWA65,2023-10-27_12h21.38.449,Trial go no go,2020.2.10,MacIntel,60,,,,space,1,0,2,2,26,1,X,space,0.335,,,,,,,,,,,,,,
,,,,,,,,,,,,,,,WWA65,001,WWA65,2023-10-27_12h21.38.449,Trial go no go,2020.2.10,MacIntel,60,,,,space,1,0,3,3,35,1,X,space,0.3273,,,,,,,,,,,,,,
,,,,,,,,,,,,,,,WWA65,001,WWA65,2023-10-27_12h21.38.449,Trial go no go,2020.2.10,MacIntel,60,,,,space,1,0,4,4,15,1,X,space,0.4037,,,,,,,,,,,,,,
,,,,,,,,,,,,,,,WWA65,001,WWA65,2023-10-27_12h21.38.449,Trial go no go,2020.2.10,MacIntel,60,,,,space,1,0,5,5,47,1,X,space,0.3265,,,,,,,,,,,,,,
,,,,,,,,,,,,,,,WWA65,001,WWA65,2023-10-27_12h21.38.449,Trial go no go,2020.2.10,MacIntel,60,,,,space,1,0,6,6,16,1,X,space,0.3037,,,,,,,,,,,,,,
,,,,,,,,,,,,,,,WWA65,001,WWA65,2023-10-27_12h21.38.449,Trial go no go,2020.2.10,MacIntel,60,,,,space,1,0,7,7,23,1,X,space,0.302,,,,,,,,,,,,,,
,,,,,,,,,,,,,,,WWA65,001,WWA65,2023-10-27_12h21.38.449,Trial go no go,2020.2.10,MacIntel,60,,,,space,1,0,8,8,5,1,X,space,0.3084,,,,,,,,,,,,,,
,,,,,,,,,,,,,,,WWA65,001,WWA65,2023-10-27_12h21.38.449,Trial go no go,2020.2.10,MacIntel,60,,,,space,1,0,9,9,28,1,X,space,0.3336,,,,,,,,,,,,,,
,,,,,,,,,,,,,,,WWA65,001,WWA65,2023-10-27_12h21.38.449,Trial go no go,2020.2.10,MacIntel,60,,,,space,1,0,10,10,8,1,X,space,0.3205,,,,,,,,,,,,,,
,,,,,,,,,,,,,,,WWA65,001,WWA65,2023-10-27_12h21.38.449,Trial go no go,2020.2.10,MacIntel,60,,,,space,1,0,11,11,37,1,X,space,0.3191,,,,,,,,,,,,,,
,,,,,,,,,,,,,,,WWA65,001,WWA65,2023-10-27_12h21.38.449,Trial go no go,2020.2.10,MacIntel,60,,,,space,0,0,12,12,4,1,V,none,0.3299,,,,,,,,,,,,,,
,,,,,,,,,,,,,,,WWA65,001,WWA65,2023-10-27_12h21.38.449,Trial go no go,2020.2.10,MacIntel,60,,,,space,1,0,13,13,1,1,X,space,0.3504,,,,,,,,,,,,,,
,,,,,,,,,,,,,,,WWA65,001,WWA65,2023-10-27_12h21.38.449,Trial go no go,2020.2.10,MacIntel,60,,,,,0,0,14,14,18,1,X,space,,,,,,,,,,,,,,,
,,,,,,,,,,,,,,,WWA65,001,WWA65,2023-10-27_12h21.38.449,Trial go no go,2020.2.10,MacIntel,60,,,,space,1,0,15,15,3,1,X,space,0.3039,,,,,,,,,,,,,,
,,,,,,,,,,,,,,,WWA65,001,WWA65,2023-10-27_12h21.38.449,Trial go no go,2020.2.10,MacIntel,60,,,,,1,0,16,16,49,1,E,none,,,,,,,,,,,,,,,
,,,,,,,,,,,,,,,WWA65,001,WWA65,2023-10-27_12h21.38.449,Trial go no go,2020.2.10,MacIntel,60,,,,space,0,0,17,17,14,1,Y,none,0.2919,,,,,,,,,,,,,,
,,,,,,,,,,,,,,,WWA65,001,WWA65,2023-10-27_12h21.38.449,Trial go no go,2020.2.10,MacIntel,60,,,,,0,0,18,18,36,1,X,space,,,,,,,,,,,,,,,
,,,,,,,,,,,,,,,WWA65,001,WWA65,2023-10-27_12h21.38.449,Trial go no go,2020.2.10,MacIntel,60,,,,,0,0,19,19,43,1,X,space,,,,,,,,,,,,,,,
,,,,,,,,,,,,,,,WWA65,001,WWA65,2023-10-27_12h21.38.449,Trial go no go,2020.2.10,MacIntel,60,,,,space,1,0,20,20,27,1,X,space,0.2686,,,,,,,,,,,,,,
,,,,,,,,,,,,,,,WWA65,001,WWA65,2023-10-27_12h21.38.449,Trial go no go,2020.2.10,MacIntel,60,,,,space,1,0,21,21,32,1,X,space,0.3521,,,,,,,,,,,,,,
,,,,,,,,,,,,,,,WWA65,001,WWA65,2023-10-27_12h21.38.449,Trial go no go,2020.2.10,MacIntel,60,,,,space,1,0,22,22,22,1,X,space,0.3545,,,,,,,,,,,,,,
,,,,,,,,,,,,,,,WWA65,001,WWA65,2023-10-27_12h21.38.449,Trial go no go,2020.2.10,MacIntel,60,,,,space,1,0,23,23,45,1,X,space,0.3519,,,,,,,,,,,,,,
,,,,,,,,,,,,,,,WWA65,001,WWA65,2023-10-27_12h21.38.449,Trial go no go,2020.2.10,MacIntel,60,,,,,1,0,24,24,34,1,N,none,,,,,,,,,,,,,,,
,,,,,,,,,,,,,,,WWA65,001,WWA65,2023-10-27_12h21.38.449,Trial go no go,2020.2.10,MacIntel,60,,,,space,1,0,25,25,12,1,X,space,0.3545,,,,,,,,,,,,,,
,,,,,,,,,,,,,,,WWA65,001,WWA65,2023-10-27_12h21.38.449,Trial go no go,2020.2.10,MacIntel,60,,,,,1,0,26,26,29,1,T,none,,,,,,,,,,,,,,,
,,,,,,,,,,,,,,,WWA65,001,WWA65,2023-10-27_12h21.38.449,Trial go no go,2020.2.10,MacIntel,60,,,,space,1,0,27,27,33,1,X,space,0.2827,,,,,,,,,,,,,,
,,,,,,,,,,,,,,,WWA65,001,WWA65,2023-10-27_12h21.38.449,Trial go no go,2020.2.10,MacIntel,60,,,,,0,0,28,28,38,1,X,space,,,,,,,,,,,,,,,
,,,,,,,,,,,,,,,WWA65,001,WWA65,2023-10-27_12h21.38.449,Trial go no go,2020.2.10,MacIntel,60,,,,space,1,0,29,29,31,1,X,space,0.3541,,,,,,,,,,,,,,
,,,,,,,,,,,,,,,WWA65,001,WWA65,2023-10-27_12h21.38.449,Trial go no go,2020.2.10,MacIntel,60,,,,,1,0,30,30,9,1,W,none,,,,,,,,,,,,,,,
,,,,,,,,,,,,,,,WWA65,001,WWA65,2023-10-27_12h21.38.449,Trial go no go,2020.2.10,MacIntel,60,,,,space,0,0,31,31,19,1,K,none,0.3134,,,,,,,,,,,,,,
,,,,,,,,,,,,,,,WWA65,001,WWA65,2023-10-27_12h21.38.449,Trial go no go,2020.2.10,MacIntel,60,,,,,0,0,32,32,17,1,X,space,,,,,,,,,,,,,,,
,,,,,,,,,,,,,,,WWA65,001,WWA65,2023-10-27_12h21.38.449,Trial go no go,2020.2.10,MacIntel,60,,,,,0,0,33,33,48,1,X,space,,,,,,,,,,,,,,,
,,,,,,,,,,,,,,,WWA65,001,WWA65,2023-10-27_12h21.38.449,Trial go no go,2020.2.10,MacIntel,60,,,,space,1,0,34,34,46,1,X,space,0.3215,,,,,,,,,,,,,,
,,,,,,,,,,,,,,,WWA65,001,WWA65,2023-10-27_12h21.38.449,Trial go no go,2020.2.10,MacIntel,60,,,,space,1,0,35,35,21,1,X,space,0.3709,,,,,,,,,,,,,,
,,,,,,,,,,,,,,,WWA65,001,WWA65,2023-10-27_12h21.38.449,Trial go no go,2020.2.10,MacIntel,60,,,,space,1,0,36,36,20,1,X,space,0.3762,,,,,,,,,,,,,,
,,,,,,,,,,,,,,,WWA65,001,WWA65,2023-10-27_12h21.38.449,Trial go no go,2020.2.10,MacIntel,60,,,,space,1,0,37,37,42,1,X,space,0.3614,,,,,,,,,,,,,,
,,,,,,,,,,,,,,,WWA65,001,WWA65,2023-10-27_12h21.38.449,Trial go no go,2020.2.10,MacIntel,60,,,,space,1,0,38,38,40,1,X,space,0.3367,,,,,,,,,,,,,,
,,,,,,,,,,,,,,,WWA65,001,WWA65,2023-10-27_12h21.38.449,Trial go no go,2020.2.10,MacIntel,60,,,,space,1,0,39,39,6,1,X,space,0.3518,,,,,,,,,,,,,,
,,,,,,,,,,,,,,,WWA65,001,WWA65,2023-10-27_12h21.38.449,Trial go no go,2020.2.10,MacIntel,60,,,,,1,0,40,40,44,1,F,none,,,,,,,,,,,,,,,
,,,,,,,,,,,,,,,WWA65,001,WWA65,2023-10-27_12h21.38.449,Trial go no go,2020.2.10,MacIntel,60,,,,space,1,0,41,41,0,1,X,space,0.3495,,,,,,,,,,,,,,
,,,,,,,,,,,,,,,WWA65,001,WWA65,2023-10-27_12h21.38.449,Trial go no go,2020.2.10,MacIntel,60,,,,space,1,0,42,42,41,1,X,space,0.3195,,,,,,,,,,,,,,
,,,,,,,,,,,,,,,WWA65,001,WWA65,2023-10-27_12h21.38.449,Trial go no go,2020.2.10,MacIntel,60,,,,space,1,0,43,43,11,1,X,space,0.3428,,,,,,,,,,,,,,
,,,,,,,,,,,,,,,WWA65,001,WWA65,2023-10-27_12h21.38.449,Trial go no go,2020.2.10,MacIntel,60,,,,space,1,0,44,44,2,1,X,space,0.3358,,,,,,,,,,,,,,
,,,,,,,,,,,,,,,WWA65,001,WWA65,2023-10-27_12h21.38.449,Trial go no go,2020.2.10,MacIntel,60,,,,space,1,0,45,45,7,1,X,space,0.3363,,,,,,,,,,,,,,
,,,,,,,,,,,,,,,WWA65,001,WWA65,2023-10-27_12h21.38.449,Trial go no go,2020.2.10,MacIntel,60,,,,space,1,0,46,46,30,1,X,space,0.3362,,,,,,,,,,,,,,
,,,,,,,,,,,,,,,WWA65,001,WWA65,2023-10-27_12h21.38.449,Trial go no go,2020.2.10,MacIntel,60,,,,,1,0,47,47,39,1,M,none,,,,,,,,,,,,,,,
,,,,,,,,,,,,,,,WWA65,001,WWA65,2023-10-27_12h21.38.449,Trial go no go,2020.2.10,MacIntel,60,,,,space,1,0,48,48,25,1,X,space,0.3197,,,,,,,,,,,,,,
,,,,,,,,,,,,,,,WWA65,001,WWA65,2023-10-27_12h21.38.449,Trial go no go,2020.2.10,MacIntel,60,,,,space,1,0,49,49,13,1,X,space,0.3722,,,,,,,,,,,,,,
,,,,,,,,,,,,,,,WWA65,001,WWA65,2023-10-27_12h21.38.449,Trial go no go,2020.2.10,MacIntel,60,,,,,,,,,,,,,,z,24.8299,space,1,0.7564,0,0,0,43,1,I,space,,
,,,,,,,,,,,,,,,WWA65,001,WWA65,2023-10-27_12h21.38.449,Trial go no go,2020.2.10,MacIntel,60,,,,,,,,,,,,,,,,space,1,0.4031,0,1,1,26,1,A,space,,
,,,,,,,,,,,,,,,WWA65,001,WWA65,2023-10-27_12h21.38.449,Trial go no go,2020.2.10,MacIntel,60,,,,,,,,,,,,,,,,space,1,0.4181,0,2,2,15,1,V,space,,
,,,,,,,,,,,,,,,WWA65,001,WWA65,2023-10-27_12h21.38.449,Trial go no go,2020.2.10,MacIntel,60,,,,,,,,,,,,,,,,space,1,0.3455,0,3,3,37,1,W,space,,
,,,,,,,,,,,,,,,WWA65,001,WWA65,2023-10-27_12h21.38.449,Trial go no go,2020.2.10,MacIntel,60,,,,,,,,,,,,,,,,space,1,0.3504,0,4,4,22,1,T,space,,
,,,,,,,,,,,,,,,WWA65,001,WWA65,2023-10-27_12h21.38.449,Trial go no go,2020.2.10,MacIntel,60,,,,,,,,,,,,,,,,space,0,0.317,0,5,5,4,1,X,none,,
,,,,,,,,,,,,,,,WWA65,001,WWA65,2023-10-27_12h21.38.449,Trial go no go,2020.2.10,MacIntel,60,,,,,,,,,,,,,,,,space,1,0.2675,0,6,6,48,1,K,space,,
,,,,,,,,,,,,,,,WWA65,001,WWA65,2023-10-27_12h21.38.449,Trial go no go,2020.2.10,MacIntel,60,,,,,,,,,,,,,,,,space,1,0.3192,0,7,7,35,1,N,space,,
,,,,,,,,,,,,,,,WWA65,001,WWA65,2023-10-27_12h21.38.449,Trial go no go,2020.2.10,MacIntel,60,,,,,,,,,,,,,,,,space,1,0.317,0,8,8,47,1,H,space,,
,,,,,,,,,,,,,,,WWA65,001,WWA65,2023-10-27_12h21.38.449,Trial go no go,2020.2.10,MacIntel,60,,,,,,,,,,,,,,,,space,1,0.35,0,9,9,8,1,F,space,,
,,,,,,,,,,,,,,,WWA65,001,WWA65,2023-10-27_12h21.38.449,Trial go no go,2020.2.10,MacIntel,60,,,,,,,,,,,,,,,,,1,,0,10,10,9,1,X,none,,
,,,,,,,,,,,,,,,WWA65,001,WWA65,2023-10-27_12h21.38.449,Trial go no go,2020.2.10,MacIntel,60,,,,,,,,,,,,,,,,space,1,0.2847,0,11,11,33,1,V,space,,
,,,,,,,,,,,,,,,WWA65,001,WWA65,2023-10-27_12h21.38.449,Trial go no go,2020.2.10,MacIntel,60,,,,,,,,,,,,,,,,space,1,0.3513,0,12,12,38,1,E,space,,
,,,,,,,,,,,,,,,WWA65,001,WWA65,2023-10-27_12h21.38.449,Trial go no go,2020.2.10,MacIntel,60,,,,,,,,,,,,,,,,space,1,0.3135,0,13,13,2,1,R,space,,
,,,,,,,,,,,,,,,WWA65,001,WWA65,2023-10-27_12h21.38.449,Trial go no go,2020.2.10,MacIntel,60,,,,,,,,,,,,,,,,space,1,0.3009,0,14,14,36,1,M,space,,
,,,,,,,,,,,,,,,WWA65,001,WWA65,2023-10-27_12h21.38.449,Trial go no go,2020.2.10,MacIntel,60,,,,,,,,,,,,,,,,space,1,0.3166,0,15,15,20,1,E,space,,
,,,,,,,,,,,,,,,WWA65,001,WWA65,2023-10-27_12h21.38.449,Trial go no go,2020.2.10,MacIntel,60,,,,,,,,,,,,,,,,space,1,0.3031,0,16,16,45,1,A,space,,
,,,,,,,,,,,,,,,WWA65,001,WWA65,2023-10-27_12h21.38.449,Trial go no go,2020.2.10,MacIntel,60,,,,,,,,,,,,,,,,space,1,0.3223,0,17,17,40,1,R,space,,
,,,,,,,,,,,,,,,WWA65,001,WWA65,2023-10-27_12h21.38.449,Trial go no go,2020.2.10,MacIntel,60,,,,,,,,,,,,,,,,,1,,0,18,18,19,1,X,none,,
,,,,,,,,,,,,,,,WWA65,001,WWA65,2023-10-27_12h21.38.449,Trial go no go,2020.2.10,MacIntel,60,,,,,,,,,,,,,,,,space,1,0.3865,0,19,19,16,1,N,space,,
,,,,,,,,,,,,,,,WWA65,001,WWA65,2023-10-27_12h21.38.449,Trial go no go,2020.2.10,MacIntel,60,,,,,,,,,,,,,,,,space,1,0.3972,0,20,20,5,1,Y,space,,
,,,,,,,,,,,,,,,WWA65,001,WWA65,2023-10-27_12h21.38.449,Trial go no go,2020.2.10,MacIntel,60,,,,,,,,,,,,,,,,,1,,0,21,21,14,1,X,none,,
,,,,,,,,,,,,,,,WWA65,001,WWA65,2023-10-27_12h21.38.449,Trial go no go,2020.2.10,MacIntel,60,,,,,,,,,,,,,,,,space,1,0.2986,0,22,22,10,1,H,space,,
,,,,,,,,,,,,,,,WWA65,001,WWA65,2023-10-27_12h21.38.449,Trial go no go,2020.2.10,MacIntel,60,,,,,,,,,,,,,,,,space,0,0.3129,0,23,23,44,1,X,none,,
,,,,,,,,,,,,,,,WWA65,001,WWA65,2023-10-27_12h21.38.449,Trial go no go,2020.2.10,MacIntel,60,,,,,,,,,,,,,,,,space,1,0.3363,0,24,24,18,1,W,space,,
,,,,,,,,,,,,,,,WWA65,001,WWA65,2023-10-27_12h21.38.449,Trial go no go,2020.2.10,MacIntel,60,,,,,,,,,,,,,,,,space,1,0.4347,0,25,25,30,1,K,space,,
,,,,,,,,,,,,,,,WWA65,001,WWA65,2023-10-27_12h21.38.449,Trial go no go,2020.2.10,MacIntel,60,,,,,,,,,,,,,,,,space,0,0.2975,0,26,26,39,1,X,none,,
,,,,,,,,,,,,,,,WWA65,001,WWA65,2023-10-27_12h21.38.449,Trial go no go,2020.2.10,MacIntel,60,,,,,,,,,,,,,,,,space,1,0.361,0,27,27,7,1,A,space,,
,,,,,,,,,,,,,,,WWA65,001,WWA65,2023-10-27_12h21.38.449,Trial go no go,2020.2.10,MacIntel,60,,,,,,,,,,,,,,,,space,1,0.3803,0,28,28,3,1,T,space,,
,,,,,,,,,,,,,,,WWA65,001,WWA65,2023-10-27_12h21.38.449,Trial go no go,2020.2.10,MacIntel,60,,,,,,,,,,,,,,,,space,1,0.3631,0,29,29,31,1,L,space,,
,,,,,,,,,,,,,,,WWA65,001,WWA65,2023-10-27_12h21.38.449,Trial go no go,2020.2.10,MacIntel,60,,,,,,,,,,,,,,,,space,1,0.3638,0,30,30,46,1,F,space,,
,,,,,,,,,,,,,,,WWA65,001,WWA65,2023-10-27_12h21.38.449,Trial go no go,2020.2.10,MacIntel,60,,,,,,,,,,,,,,,,space,1,0.6676,0,31,31,28,1,H,space,,
,,,,,,,,,,,,,,,WWA65,001,WWA65,2023-10-27_12h21.38.449,Trial go no go,2020.2.10,MacIntel,60,,,,,,,,,,,,,,,,space,1,0.3878,0,32,32,23,1,Y,space,,
,,,,,,,,,,,,,,,WWA65,001,WWA65,2023-10-27_12h21.38.449,Trial go no go,2020.2.10,MacIntel,60,,,,,,,,,,,,,,,,space,1,0.3484,0,33,33,13,1,Z,space,,
,,,,,,,,,,,,,,,WWA65,001,WWA65,2023-10-27_12h21.38.449,Trial go no go,2020.2.10,MacIntel,60,,,,,,,,,,,,,,,,space,1,0.3349,0,34,34,32,1,Z,space,,
,,,,,,,,,,,,,,,WWA65,001,WWA65,2023-10-27_12h21.38.449,Trial go no go,2020.2.10,MacIntel,60,,,,,,,,,,,,,,,,,1,,0,35,35,24,1,X,none,,
,,,,,,,,,,,,,,,WWA65,001,WWA65,2023-10-27_12h21.38.449,Trial go no go,2020.2.10,MacIntel,60,,,,,,,,,,,,,,,,space,1,0.3428,0,36,36,6,1,I,space,,
,,,,,,,,,,,,,,,WWA65,001,WWA65,2023-10-27_12h21.38.449,Trial go no go,2020.2.10,MacIntel,60,,,,,,,,,,,,,,,,,1,,0,37,37,29,1,X,none,,
,,,,,,,,,,,,,,,WWA65,001,WWA65,2023-10-27_12h21.38.449,Trial go no go,2020.2.10,MacIntel,60,,,,,,,,,,,,,,,,space,1,0.4104,0,38,38,42,1,Y,space,,
,,,,,,,,,,,,,,,WWA65,001,WWA65,2023-10-27_12h21.38.449,Trial go no go,2020.2.10,MacIntel,60,,,,,,,,,,,,,,,,space,1,0.3039,0,39,39,11,1,K,space,,
,,,,,,,,,,,,,,,WWA65,001,WWA65,2023-10-27_12h21.38.449,Trial go no go,2020.2.10,MacIntel,60,,,,,,,,,,,,,,,,space,1,0.4144,0,40,40,0,1,W,space,,
,,,,,,,,,,,,,,,WWA65,001,WWA65,2023-10-27_12h21.38.449,Trial go no go,2020.2.10,MacIntel,60,,,,,,,,,,,,,,,,space,1,0.3567,0,41,41,27,1,F,space,,
,,,,,,,,,,,,,,,WWA65,001,WWA65,2023-10-27_12h21.38.449,Trial go no go,2020.2.10,MacIntel,60,,,,,,,,,,,,,,,,space,1,0.2615,0,42,42,1,1,E,space,,
,,,,,,,,,,,,,,,WWA65,001,WWA65,2023-10-27_12h21.38.449,Trial go no go,2020.2.10,MacIntel,60,,,,,,,,,,,,,,,,space,1,0.2699,0,43,43,17,1,M,space,,
,,,,,,,,,,,,,,,WWA65,001,WWA65,2023-10-27_12h21.38.449,Trial go no go,2020.2.10,MacIntel,60,,,,,,,,,,,,,,,,space,1,0.2973,0,44,44,25,1,I,space,,
,,,,,,,,,,,,,,,WWA65,001,WWA65,2023-10-27_12h21.38.449,Trial go no go,2020.2.10,MacIntel,60,,,,,,,,,,,,,,,,space,1,0.2978,0,45,45,41,1,T,space,,
,,,,,,,,,,,,,,,WWA65,001,WWA65,2023-10-27_12h21.38.449,Trial go no go,2020.2.10,MacIntel,60,,,,,,,,,,,,,,,,space,1,0.2706,0,46,46,12,1,L,space,,
,,,,,,,,,,,,,,,WWA65,001,WWA65,2023-10-27_12h21.38.449,Trial go no go,2020.2.10,MacIntel,60,,,,,,,,,,,,,,,,space,0,0.2672,0,47,47,34,1,X,none,,
,,,,,,,,,,,,,,,WWA65,001,WWA65,2023-10-27_12h21.38.449,Trial go no go,2020.2.10,MacIntel,60,,,,,,,,,,,,,,,,space,1,0.3339,0,48,48,21,1,R,space,,
,,,,,,,,,,,,,,,WWA65,001,WWA65,2023-10-27_12h21.38.449,Trial go no go,2020.2.10,MacIntel,60,,,,,,,,,,,,,,,,,1,,0,49,49,49,1,X,none,,
,,,,,,,,,,,,,,,WWA65,001,WWA65,2023-10-27_12h21.38.449,Trial go no go,2020.2.10,MacIntel,60,,,,,,,,,,,,,,,,,,,,,,,,,,space,18.4689
